Generated file C:/Users/didvk/OneDrive - University of Florida/UF_Isaiah_06-16-2020-Tue/Analysis/Re0.1Mo0.9B2/Re0.1Mo0.9B2_HPXRD_run2_300_20220710 - Copy/mask&dat&fxye_4position/1_ReMoB2_0pGPa_0psi_Samp_P1_C4_D1w_024.fxye using DIOPTAS
# == pyFAI calibration ==
# Distance Sample to Detector: 0.2103851508954585 m
# PONI: 8.889e-02, 8.665e-02 m
# Rotations: 0.008634 -0.000915 0.000000 rad
# 
# == Fit2d calibration ==
# Distance Sample-beamCenter: 210.393 mm
# Center: x=493.236, y=515.685 pix
# Tilt: 0.497 deg  TiltPlanRot: -173.953 deg
# 
# Detector Detector	 Spline= None	 PixelSize= 1.720e-04, 1.720e-04 m
#    Detector has a mask: False 
#    Detector has a dark current: False 
#    detector has a flat field: False 
# 
# Wavelength: 4.133e-11 m
# Mask applied: None
# Dark current applied: None
# Flat field applied: None
# Polarization factor: None
# Normalization factor: None
BANK	1	1129	1129 CONS	282.731	1.89862 0.4133 0.0 FXYE
	282.731	0.304086	0.55144
	284.629	0.585888	0.765433
	286.528	1.26423	1.12438
	288.427	1.82711	1.35171
	290.325	2.20526	1.48501
	292.224	1.84479	1.35823
	294.122	1.43079	1.19616
	296.021	1.01914	1.00952
	297.92	1.14681	1.07089
	299.818	1.08194	1.04016
	301.717	1.25476	1.12016
	303.616	1.80227	1.34249
	305.514	2.08482	1.44389
	307.413	1.80212	1.34243
	309.311	1.63647	1.27924
	311.21	1.50169	1.22543
	313.109	1.80598	1.34387
	315.007	1.88756	1.37388
	316.906	2.30022	1.51665
	318.805	1.71679	1.31026
	320.703	1.82765	1.3519
	322.602	1.61363	1.27029
	324.5	1.66556	1.29057
	326.399	1.51501	1.23086
	328.298	2.03703	1.42724
	330.196	1.57455	1.25481
	332.095	1.85805	1.3631
	333.993	2.11524	1.45439
	335.892	2.46304	1.56941
	337.791	3.46014	1.86015
	339.689	4.06309	2.01571
	341.588	4.92412	2.21904
	343.487	4.93347	2.22114
	345.385	3.88844	1.97191
	347.284	3.61892	1.90235
	349.182	2.94119	1.71499
	351.081	2.3166	1.52204
	352.98	2.02165	1.42185
	354.878	2.07258	1.43965
	356.777	2.30141	1.51704
	358.676	1.87876	1.37068
	360.574	0.769806	0.877386
	362.473	0.546055	0.738956
	364.371	1.19813	1.09459
	366.27	1.81636	1.34773
	368.169	1.81581	1.34752
	370.067	1.36297	1.16746
	371.966	1.74281	1.32016
	373.864	1.43167	1.19652
	375.763	1.45644	1.20683
	377.662	2.01565	1.41974
	379.56	2.10022	1.44921
	381.459	2.65198	1.62849
	383.358	2.46496	1.57002
	385.256	2.27251	1.50749
	387.155	1.47081	1.21277
	389.053	0.998986	0.999493
	390.952	0.957831	0.978688
	392.851	1.43287	1.19703
	394.749	1.73969	1.31897
	396.648	1.58211	1.25782
	398.547	1.15457	1.07451
	400.445	0.951355	0.975374
	402.344	1.22931	1.10874
	404.242	1.5035	1.22617
	406.141	1.49202	1.22148
	408.04	1.46013	1.20836
	409.938	0.806021	0.897787
	411.837	0.964056	0.981863
	413.735	1.28277	1.13259
	415.634	1.92429	1.38719
	417.533	1.9009	1.37873
	419.431	1.70459	1.3056
	421.33	0.777497	0.881758
	423.229	0.604072	0.77722
	425.127	0.820154	0.905624
	427.026	1.22065	1.10483
	428.924	1.03411	1.01691
	430.823	0.345988	0.588207
	432.722	-0.0502525	0.224171
	434.62	-0.0768284	0.277179
	436.519	0.519344	0.720655
	438.418	0.841649	0.917414
	440.316	0.871236	0.9334
	442.215	0.609	0.780384
	444.113	0.68437	0.827267
	446.012	0.201212	0.448567
	447.911	-0.167022	0.408684
	449.809	0.0085347	0.0923834
	451.708	0.313887	0.560256
	453.606	0.397549	0.630515
	455.505	0.347483	0.589476
	457.404	0.626151	0.791297
	459.302	0.793953	0.89104
	461.201	0.510627	0.714582
	463.1	0.344176	0.586665
	464.998	0.607507	0.779428
	466.897	0.820943	0.906059
	468.795	1.01566	1.0078
	470.694	0.793465	0.890766
	472.593	0.94516	0.972194
	474.491	1.03487	1.01728
	476.39	0.99864	0.99932
	478.289	1.05493	1.0271
	480.187	0.950594	0.974984
	482.086	1.34014	1.15765
	483.984	1.30612	1.14285
	485.883	1.43441	1.19767
	487.782	1.549	1.24459
	489.68	1.96517	1.40185
	491.579	1.89089	1.3751
	493.478	1.07385	1.03627
	495.376	0.0162602	0.127515
	497.275	-0.257126	0.507076
	499.173	0.436063	0.660351
	501.072	0.78023	0.883307
	502.971	1.61636	1.27136
	504.869	1.46933	1.21216
	506.768	1.55065	1.24525
	508.666	1.88249	1.37204
	510.565	2.02878	1.42435
	512.464	2.37188	1.54009
	514.362	1.47993	1.21652
	516.261	1.18254	1.08745
	518.16	1.20004	1.09546
	520.058	1.583	1.25817
	521.957	2.40168	1.54973
	523.855	2.42624	1.55764
	525.754	1.46815	1.21167
	527.653	0.933146	0.965995
	529.551	0.68913	0.830139
	531.45	0.902173	0.949828
	533.349	1.15561	1.07499
	535.247	0.813304	0.901834
	537.146	0.831753	0.912005
	539.044	0.655526	0.809646
	540.943	0.61653	0.785194
	542.842	0.959971	0.979781
	544.74	0.740366	0.860445
	546.639	0.884057	0.940243
	548.537	0.974852	0.987346
	550.436	0.840028	0.91653
	552.335	0.664674	0.815276
	554.233	0.713573	0.844733
	556.132	0.778144	0.882125
	558.031	0.450385	0.671108
	559.929	0.682185	0.825945
	561.828	0.905377	0.951513
	563.726	1.52006	1.23291
	565.625	1.43826	1.19928
	567.524	0.800871	0.894914
	569.422	0.935377	0.967149
	571.321	0.656824	0.810447
	573.22	1.16112	1.07755
	575.118	1.69874	1.30336
	577.017	1.7543	1.3245
	578.915	1.74593	1.32134
	580.814	1.65929	1.28813
	582.713	1.78334	1.33542
	584.611	1.4903	1.22078
	586.51	1.33832	1.15686
	588.408	1.29086	1.13616
	590.307	0.769792	0.877378
	592.206	0.733564	0.856484
	594.104	0.906056	0.95187
	596.003	1.19352	1.09248
	597.902	1.02866	1.01423
	599.8	0.82412	0.90781
	601.699	0.47596	0.689899
	603.597	0.169432	0.411622
	605.496	-0.243055	0.493006
	607.395	-0.0240024	0.154927
	609.293	-0.127056	0.356449
	611.192	-0.0886192	0.29769
	613.091	0.404454	0.635967
	614.989	0.459641	0.677968
	616.888	0.572467	0.756615
	618.786	0.568874	0.754237
	620.685	0.353738	0.594759
	622.584	0.308071	0.555042
	624.482	0.660799	0.812895
	626.381	1.41382	1.18904
	628.279	1.55351	1.2464
	630.178	1.59485	1.26288
	632.077	1.66879	1.29182
	633.975	1.45293	1.20538
	635.874	1.15298	1.07377
	637.773	1.40074	1.18353
	639.671	1.9898	1.4106
	641.57	3.01781	1.73718
	643.468	4.02278	2.00569
	645.367	4.74306	2.17786
	647.266	3.82866	1.9567
	649.164	2.62947	1.62157
	651.063	1.4668	1.21112
	652.962	1.27564	1.12944
	654.86	1.11737	1.05706
	656.759	0.869398	0.932415
	658.657	0.799682	0.89425
	660.556	0.699317	0.836252
	662.455	0.711389	0.843439
	664.353	0.783548	0.885183
	666.252	0.78511	0.886065
	668.15	1.36021	1.16628
	670.049	2.11327	1.45371
	671.948	3.02105	1.73812
	673.846	4.05315	2.01324
	675.745	6.1959	2.48916
	677.644	8.64289	2.93988
	679.542	11.2132	3.34861
	681.441	14.2898	3.78018
	683.339	16.1689	4.02105
	685.238	14.9103	3.86139
	687.137	11.0784	3.32843
	689.035	7.26865	2.69604
	690.934	4.09308	2.02314
	692.833	2.20993	1.48658
	694.731	1.16779	1.08064
	696.63	0.862112	0.9285
	698.528	1.08453	1.04141
	700.427	0.961044	0.980329
	702.326	0.874508	0.935151
	704.224	0.499112	0.706479
	706.123	0.729692	0.85422
	708.021	0.575056	0.758324
	709.92	0.617609	0.785881
	711.819	0.354513	0.59541
	713.717	0.307792	0.55479
	715.616	0.0597838	0.244507
	717.515	0.256735	0.50669
	719.413	0.588071	0.766858
	721.312	0.581041	0.762261
	723.21	0.611431	0.78194
	725.109	0.395642	0.629001
	727.008	-0.0121105	0.110048
	728.906	-0.0991841	0.314935
	730.805	-0.110904	0.333022
	732.704	0.224628	0.473949
	734.602	0.280393	0.529522
	736.501	0.735186	0.85743
	738.399	0.752111	0.867243
	740.298	1.05476	1.02702
	742.197	1.17516	1.08405
	744.095	0.948194	0.973752
	745.994	0.541155	0.735632
	747.892	0.349034	0.590791
	749.791	0.698783	0.835933
	751.69	1.1004	1.049
	753.588	1.07304	1.03588
	755.487	1.02249	1.01118
	757.386	0.810139	0.900077
	759.284	0.97122	0.985505
	761.183	1.1205	1.05854
	763.081	0.696206	0.83439
	764.98	0.342936	0.585607
	766.879	0.00379918	0.0616375
	768.777	0.666428	0.816351
	770.676	0.695756	0.83412
	772.575	0.311216	0.557868
	774.473	0.329268	0.573819
	776.372	0.681293	0.825405
	778.27	0.658223	0.811309
	780.169	0.66437	0.815089
	782.068	0.809269	0.899594
	783.966	0.950309	0.974838
	785.865	1.00427	1.00213
	787.764	0.717251	0.846907
	789.662	0.906215	0.951953
	791.561	0.609671	0.780814
	793.459	0.478556	0.691777
	795.358	0.555279	0.74517
	797.257	0.92147	0.959932
	799.155	1.12502	1.06067
	801.054	1.28337	1.13286
	802.952	1.1624	1.07815
	804.851	1.53917	1.24063
	806.75	1.30185	1.14099
	808.648	0.661146	0.813109
	810.547	-0.00235911	0.0485707
	812.446	-0.0769631	0.277422
	814.344	-0.0316292	0.177846
	816.243	0.297001	0.544978
	818.141	0.522206	0.722638
	820.04	0.804319	0.896838
	821.939	0.731852	0.855483
	823.837	0.532461	0.729699
	825.736	0.122816	0.350451
	827.635	-0.0517716	0.227534
	829.533	0.101582	0.31872
	831.432	0.424346	0.651418
	833.33	0.0940209	0.306628
	835.229	0.0765368	0.276653
	837.128	0.182098	0.426729
	839.026	0.409361	0.639813
	840.925	0.32384	0.569069
	842.823	0.593655	0.77049
	844.722	1.04905	1.02423
	846.621	1.23494	1.11128
	848.519	1.20084	1.09583
	850.418	0.943821	0.971505
	852.317	1.04444	1.02198
	854.215	0.712662	0.844193
	856.114	0.386158	0.621416
	858.012	0.236144	0.485947
	859.911	0.281806	0.530854
	861.81	0.0361583	0.190153
	863.708	-0.113521	0.336929
	865.607	-0.122171	0.349529
	867.506	0.0429638	0.207277
	869.404	0.122471	0.349958
	871.303	0.198452	0.445479
	873.201	0.712832	0.844294
	875.1	0.923753	0.961121
	876.999	0.807422	0.898566
	878.897	0.417276	0.645969
	880.796	0.42892	0.65492
	882.694	0.451981	0.672295
	884.593	0.662495	0.813938
	886.492	0.84438	0.918902
	888.39	0.985977	0.992964
	890.289	0.903492	0.950522
	892.188	1.20589	1.09813
	894.086	1.41232	1.18841
	895.985	1.98203	1.40785
	897.883	2.78019	1.66739
	899.782	4.10476	2.02602
	901.681	5.97943	2.44529
	903.579	7.93695	2.81726
	905.478	12.1124	3.48029
	907.377	21.4064	4.6267
	909.275	36.6129	6.05086
	911.174	97.1112	9.8545
	913.072	216.438	14.7118
	914.971	345.002	18.5742
	916.87	460.466	21.4585
	918.768	447.436	21.1527
	920.667	368.82	19.2047
	922.565	233.263	15.273
	924.464	164.197	12.8139
	926.363	112.095	10.5875
	928.261	84.5805	9.19676
	930.16	72.3331	8.50489
	932.059	93.0772	9.64765
	933.957	149.742	12.2369
	935.856	241.842	15.5513
	937.754	327.728	18.1033
	939.653	368.245	19.1897
	941.552	311.309	17.6439
	943.45	236.182	15.3682
	945.349	124.412	11.154
	947.248	70.4263	8.39204
	949.146	34.1477	5.84361
	951.045	19.6654	4.43457
	952.943	11.587	3.40397
	954.842	7.5946	2.75583
	956.741	5.21804	2.2843
	958.639	3.93242	1.98303
	960.538	3.12053	1.7665
	962.436	2.3922	1.54667
	964.335	1.75112	1.3233
	966.234	1.55063	1.24524
	968.132	1.20252	1.09659
	970.031	0.990316	0.995146
	971.93	0.64849	0.805289
	973.828	0.303164	0.550604
	975.727	0.128926	0.359063
	977.625	-0.000808178	0.0284285
	979.524	0.50633	0.711569
	981.423	1.07878	1.03864
	983.321	1.83976	1.35638
	985.22	2.58456	1.60766
	987.119	4.67456	2.16207
	989.017	7.60653	2.75799
	990.916	12.5677	3.5451
	992.814	23.9788	4.89681
	994.713	29.6602	5.44612
	996.612	27.8711	5.27931
	998.51	18.5434	4.30621
	1000.41	10.4029	3.22535
	1002.31	4.55717	2.13475
	1004.21	2.96136	1.72086
	1006.1	3.40273	1.84465
	1008	5.01848	2.2402
	1009.9	8.30328	2.88154
	1011.8	90.9602	9.53731
	1013.7	120.21	10.964
	1015.6	133.24	11.543
	1017.5	92.622	9.62403
	1019.4	88.4944	9.40715
	1021.29	67.9426	8.24273
	1023.19	48.737	6.98119
	1025.09	40.0045	6.32491
	1026.99	11.3139	3.36361
	1028.89	7.03582	2.65251
	1030.79	4.3852	2.09409
	1032.69	1.48456	1.21842
	1034.58	0.804966	0.897199
	1036.48	0.2737	0.523163
	1038.38	0.412618	0.642354
	1040.28	0.6909	0.831204
	1042.18	0.850015	0.921962
	1044.08	1.24115	1.11407
	1045.98	1.06305	1.03104
	1047.87	0.765187	0.87475
	1049.77	0.677509	0.823109
	1051.67	0.799309	0.894041
	1053.57	1.60873	1.26836
	1055.47	2.54081	1.59399
	1057.37	3.82455	1.95565
	1059.27	5.64884	2.37673
	1061.16	9.04619	3.00769
	1063.06	23.2087	4.81754
	1064.96	42.0463	6.48431
	1066.86	87.391	9.34831
	1068.76	134.789	11.6099
	1070.66	233.401	15.2775
	1072.56	274.619	16.5716
	1074.46	285.062	16.8838
	1076.35	243.503	15.6046
	1078.25	184.103	13.5684
	1080.15	133.008	11.5329
	1082.05	85.4916	9.24617
	1083.95	51.3346	7.16482
	1085.85	27.9093	5.28293
	1087.75	17.5962	4.19478
	1089.64	11.7093	3.42189
	1091.54	8.73552	2.95559
	1093.44	6.42098	2.53397
	1095.34	5.52218	2.34993
	1097.24	4.92241	2.21865
	1099.14	4.91513	2.21701
	1101.04	4.7903	2.18868
	1102.93	4.60245	2.14533
	1104.83	4.68682	2.16491
	1106.73	4.02022	2.00505
	1108.63	4.11134	2.02765
	1110.53	3.84484	1.96083
	1112.43	4.66364	2.15955
	1114.33	4.30494	2.07483
	1116.22	4.28715	2.07054
	1118.12	4.04383	2.01093
	1120.02	4.72608	2.17396
	1121.92	5.24357	2.28989
	1123.82	5.74897	2.3977
	1125.72	5.67657	2.38256
	1127.62	5.46982	2.33876
	1129.51	5.55284	2.35645
	1131.41	4.6623	2.15924
	1133.31	3.58288	1.89285
	1135.21	2.53155	1.59109
	1137.11	1.81632	1.34771
	1139.01	1.4294	1.19557
	1140.91	1.16882	1.08112
	1142.81	1.15535	1.07487
	1144.7	1.07274	1.03573
	1146.6	0.727196	0.852758
	1148.5	0.16299	0.40372
	1150.4	-0.260359	0.510254
	1152.3	-0.325973	0.57094
	1154.2	-0.383386	0.619182
	1156.1	-0.0147951	0.121635
	1157.99	-0.10683	0.326849
	1159.89	0.221187	0.470305
	1161.79	0.423291	0.650608
	1163.69	0.657349	0.810771
	1165.59	0.744641	0.862926
	1167.49	0.988676	0.994322
	1169.39	1.11055	1.05383
	1171.28	1.05445	1.02687
	1173.18	2.03515	1.42659
	1175.08	3.39706	1.84311
	1176.98	5.0233	2.24127
	1178.88	5.90372	2.42976
	1180.78	5.46606	2.33796
	1182.68	4.32849	2.0805
	1184.57	3.45393	1.85847
	1186.47	2.75355	1.65938
	1188.37	2.80431	1.67461
	1190.27	2.66457	1.63235
	1192.17	2.66221	1.63163
	1194.07	2.88454	1.69839
	1195.97	3.66946	1.91558
	1197.87	4.54595	2.13212
	1199.76	5.9463	2.4385
	1201.66	7.95544	2.82054
	1203.56	11.6773	3.41721
	1205.46	16.522	4.06472
	1207.36	31.5581	5.61766
	1209.26	45.7233	6.7619
	1211.16	77.7104	8.81535
	1213.05	94.9765	9.74559
	1214.95	91.9372	9.58839
	1216.85	53.1207	7.2884
	1218.75	33.5853	5.79528
	1220.65	19.6344	4.43108
	1222.55	13.7688	3.71064
	1224.45	10.9243	3.30519
	1226.34	8.57466	2.92825
	1228.24	6.99807	2.64539
	1230.14	5.86673	2.42213
	1232.04	5.32506	2.30761
	1233.94	4.84596	2.20135
	1235.84	4.47092	2.11446
	1237.74	4.43925	2.10695
	1239.63	4.47548	2.11553
	1241.53	4.52156	2.1264
	1243.43	4.17791	2.04399
	1245.33	4.00167	2.00042
	1247.23	4.09057	2.02251
	1249.13	4.21533	2.05313
	1251.03	4.05905	2.01471
	1252.93	3.65563	1.91197
	1254.82	3.81846	1.95409
	1256.72	3.76554	1.9405
	1258.62	4.0671	2.01671
	1260.52	4.04478	2.01116
	1262.42	4.36738	2.08983
	1264.32	4.56267	2.13604
	1266.22	4.79004	2.18862
	1268.11	5.22954	2.28682
	1270.01	6.40307	2.53043
	1271.91	7.87811	2.8068
	1273.81	9.68671	3.11235
	1275.71	11.8197	3.43798
	1277.61	16.7945	4.09811
	1279.51	32.4989	5.70078
	1281.4	70.2435	8.38114
	1283.3	110.941	10.5328
	1285.2	154.279	12.4209
	1287.1	153.397	12.3853
	1289	144.194	12.0081
	1290.9	104.214	10.2085
	1292.8	81.5857	9.03248
	1294.69	47.8494	6.91733
	1296.59	32.4309	5.69481
	1298.49	18.6175	4.3148
	1300.39	11.9618	3.45858
	1302.29	7.50977	2.7404
	1304.19	4.70144	2.16828
	1306.09	3.20797	1.79108
	1307.99	2.09171	1.44627
	1309.88	1.74897	1.32249
	1311.78	1.32073	1.14923
	1313.68	0.927184	0.962904
	1315.58	0.420284	0.648293
	1317.48	0.479893	0.692743
	1319.38	0.664955	0.815448
	1321.28	0.810998	0.900554
	1323.17	0.759607	0.871554
	1325.07	0.613962	0.783557
	1326.97	0.49757	0.705386
	1328.87	0.992524	0.996255
	1330.77	1.13531	1.06551
	1332.67	1.08969	1.04388
	1334.57	0.981119	0.990515
	1336.46	1.03829	1.01897
	1338.36	0.813316	0.90184
	1340.26	0.352832	0.593996
	1342.16	0.206375	0.454285
	1344.06	0.133154	0.364903
	1345.96	0.0833746	0.288747
	1347.86	0.129756	0.360216
	1349.75	0.728425	0.853478
	1351.65	1.23616	1.11183
	1353.55	1.72159	1.31209
	1355.45	4.00719	2.0018
	1357.35	11.062	3.32595
	1359.25	21.7513	4.66383
	1361.15	32.0898	5.66479
	1363.05	31.666	5.62726
	1364.94	23.1522	4.81167
	1366.84	12.1052	3.47926
	1368.74	6.45088	2.53986
	1370.64	3.90243	1.97546
	1372.54	2.16853	1.47259
	1374.44	1.68409	1.29773
	1376.34	1.515	1.23085
	1378.23	1.01138	1.00568
	1380.13	0.647125	0.804441
	1382.03	0.719094	0.847994
	1383.93	0.631735	0.794818
	1385.83	0.108483	0.329368
	1387.73	-0.313366	0.559791
	1389.63	-0.334126	0.578036
	1391.52	0.0235243	0.153376
	1393.42	0.0354889	0.188385
	1395.32	0.240891	0.490806
	1397.22	0.15757	0.39695
	1399.12	0.458671	0.677253
	1401.02	0.170844	0.413333
	1402.92	0.417757	0.646341
	1404.81	0.401096	0.633321
	1406.71	0.49319	0.702275
	1408.61	0.511532	0.715215
	1410.51	0.656229	0.81008
	1412.41	0.915628	0.956885
	1414.31	0.716222	0.846299
	1416.21	0.82227	0.906791
	1418.11	0.776861	0.881397
	1420	0.774266	0.879924
	1421.9	0.673005	0.820369
	1423.8	0.656641	0.810334
	1425.7	0.448258	0.669521
	1427.6	0.429147	0.655093
	1429.5	0.89983	0.948594
	1431.4	1.06794	1.03341
	1433.29	0.898277	0.947775
	1435.19	0.831704	0.911978
	1437.09	1.30484	1.1423
	1438.99	1.36658	1.16901
	1440.89	1.17524	1.08408
	1442.79	0.685058	0.827682
	1444.69	0.401509	0.633647
	1446.58	0.543666	0.737337
	1448.48	0.639366	0.799603
	1450.38	0.728132	0.853306
	1452.28	1.39775	1.18227
	1454.18	1.90323	1.37958
	1456.08	2.2081	1.48597
	1457.98	2.14517	1.46464
	1459.87	1.54783	1.24412
	1461.77	1.03129	1.01552
	1463.67	0.990922	0.995451
	1465.57	1.32409	1.15069
	1467.47	1.42667	1.19443
	1469.37	1.15393	1.07421
	1471.27	1.0511	1.02523
	1473.17	0.822184	0.906744
	1475.06	0.174203	0.417376
	1476.96	-0.216822	0.465641
	1478.86	0.0122963	0.110889
	1480.76	0.335981	0.579639
	1482.66	0.45621	0.675433
	1484.56	0.331293	0.57558
	1486.46	0.142211	0.377109
	1488.35	0.0247805	0.157418
	1490.25	-0.0543718	0.233178
	1492.15	0.134885	0.367267
	1494.05	0.531041	0.728726
	1495.95	0.827837	0.909856
	1497.85	0.850239	0.922084
	1499.75	0.731747	0.855422
	1501.64	0.677058	0.822835
	1503.54	0.626971	0.791815
	1505.44	0.561959	0.749639
	1507.34	0.709106	0.842084
	1509.24	0.81172	0.900955
	1511.14	0.904491	0.951047
	1513.04	0.865219	0.930171
	1514.93	1.02312	1.01149
	1516.83	1.15648	1.0754
	1518.73	1.82253	1.35001
	1520.63	2.21509	1.48832
	1522.53	2.18946	1.47968
	1524.43	2.03346	1.42599
	1526.33	2.26249	1.50416
	1528.23	2.70921	1.64597
	1530.12	3.62514	1.90398
	1532.02	4.51938	2.12588
	1533.92	6.64006	2.57683
	1535.82	10.04	3.16859
	1537.72	18.524	4.30395
	1539.62	39.3481	6.27281
	1541.52	108.898	10.4354
	1543.41	237.805	15.4209
	1545.31	356.442	18.8797
	1547.21	418.515	20.4576
	1549.11	360.015	18.9741
	1551.01	257.376	16.043
	1552.91	166.677	12.9103
	1554.81	130.67	11.4311
	1556.7	95.7868	9.78707
	1558.6	63.3535	7.95949
	1560.5	39.876	6.31475
	1562.4	21.4642	4.63295
	1564.3	15.0223	3.87586
	1566.2	10.5947	3.25495
	1568.1	9.07364	3.01225
	1569.99	9.54699	3.08982
	1571.89	10.8746	3.29767
	1573.79	13.446	3.66688
	1575.69	17.9104	4.23206
	1577.59	22.7782	4.77266
	1579.49	25.9336	5.09251
	1581.39	27.8089	5.27341
	1583.29	25.8532	5.0846
	1585.18	22.3934	4.73217
	1587.08	15.7236	3.9653
	1588.98	11.1681	3.34187
	1590.88	7.58135	2.75342
	1592.78	5.49523	2.34419
	1594.68	4.01207	2.00301
	1596.58	3.21243	1.79233
	1598.47	2.66889	1.63367
	1600.37	2.05251	1.43266
	1602.27	1.49703	1.22353
	1604.17	1.07995	1.03921
	1606.07	1.13995	1.06768
	1607.97	1.10407	1.05075
	1609.87	1.05693	1.02807
	1611.76	2.31726	1.52225
	1613.66	3.96104	1.99024
	1615.56	3.78023	1.94428
	1617.46	2.8502	1.68825
	1619.36	2.94756	1.71685
	1621.26	1.58748	1.25995
	1623.16	1.44867	1.20361
	1625.05	0.977664	0.988769
	1626.95	0.850962	0.922476
	1628.85	0.875557	0.935712
	1630.75	0.503263	0.70941
	1632.65	0.656564	0.810286
	1634.55	0.920836	0.959602
	1636.45	0.944871	0.972045
	1638.34	0.552541	0.743331
	1640.24	0.54694	0.739554
	1642.14	0.843652	0.918505
	1644.04	1.08866	1.04339
	1645.94	0.871846	0.933727
	1647.84	0.865544	0.930346
	1649.74	0.521728	0.722307
	1651.64	0.470081	0.685625
	1653.53	0.549676	0.741401
	1655.43	0.279351	0.528536
	1657.33	-0.114513	0.338398
	1659.23	-0.107099	0.327259
	1661.13	0.241808	0.491739
	1663.03	0.0741768	0.272354
	1664.93	0.0398139	0.199534
	1666.82	0.137255	0.370479
	1668.72	-0.0221196	0.148727
	1670.62	-0.0812249	0.285
	1672.52	-0.131395	0.362485
	1674.42	0.0792869	0.281579
	1676.32	0.217832	0.466725
	1678.22	0.228843	0.478376
	1680.11	0.148484	0.385336
	1682.01	0.289213	0.537785
	1683.91	0.359491	0.599576
	1685.81	0.325675	0.57068
	1687.71	0.206311	0.454214
	1689.61	0.494237	0.70302
	1691.51	0.466709	0.683161
	1693.4	0.464277	0.681379
	1695.3	0.927654	0.963148
	1697.2	2.40619	1.55119
	1699.1	4.3163	2.07757
	1701	6.90378	2.6275
	1702.9	9.2988	3.04939
	1704.8	10.373	3.22071
	1706.7	9.26303	3.04352
	1708.59	7.59027	2.75505
	1710.49	6.82523	2.61251
	1712.39	7.63374	2.76292
	1714.29	12.2123	3.49462
	1716.19	19.4465	4.40982
	1718.09	32.3835	5.69065
	1719.99	42.3275	6.50596
	1721.88	50.3321	7.09451
	1723.78	55.0431	7.4191
	1725.68	59.6335	7.72227
	1727.58	61.5121	7.84297
	1729.48	53.1533	7.29063
	1731.38	40.1283	6.33469
	1733.28	26.5792	5.1555
	1735.17	21.4292	4.62917
	1737.07	18.7669	4.33207
	1738.97	20.6304	4.54207
	1740.87	22.7151	4.76604
	1742.77	28.6968	5.35694
	1744.67	26.6682	5.16413
	1746.57	23.1948	4.8161
	1748.46	13.1977	3.63286
	1750.36	9.39232	3.06469
	1752.26	6.42457	2.53467
	1754.16	4.79243	2.18916
	1756.06	3.51516	1.87488
	1757.96	2.49849	1.58066
	1759.86	2.07393	1.44011
	1761.76	1.72726	1.31425
	1763.65	1.55923	1.24869
	1765.55	1.22323	1.106
	1767.45	0.817383	0.904092
	1769.35	0.696308	0.834451
	1771.25	0.714935	0.845538
	1773.15	0.824748	0.908156
	1775.05	0.633085	0.795667
	1776.94	0.560028	0.74835
	1778.84	0.545767	0.73876
	1780.74	1.18729	1.08963
	1782.64	1.18428	1.08825
	1784.54	1.14589	1.07046
	1786.44	0.847917	0.920824
	1788.34	0.483266	0.695174
	1790.23	0.66663	0.816474
	1792.13	0.936475	0.967716
	1794.03	0.964813	0.982249
	1795.93	1.12488	1.0606
	1797.83	1.1153	1.05608
	1799.73	1.44958	1.20398
	1801.63	1.43356	1.19731
	1803.52	1.69952	1.30366
	1805.42	2.27593	1.50862
	1807.32	2.33137	1.52688
	1809.22	2.55511	1.59847
	1811.12	2.53972	1.59365
	1813.02	2.68481	1.63854
	1814.92	3.04216	1.74418
	1816.82	3.71275	1.92685
	1818.71	4.8203	2.19552
	1820.61	6.70124	2.58868
	1822.51	9.27728	3.04586
	1824.41	15.3834	3.92216
	1826.31	26.2715	5.12558
	1828.21	49.7944	7.05652
	1830.11	93.2899	9.65867
	1832	151.198	12.2963
	1833.9	191.242	13.829
	1835.8	190.614	13.8063
	1837.7	161.177	12.6956
	1839.6	144.6	12.025
	1841.5	143.5	11.9791
	1843.4	185.664	13.6259
	1845.29	196.937	14.0334
	1847.19	200.443	14.1578
	1849.09	141.526	11.8965
	1850.99	101.301	10.0648
	1852.89	56.9601	7.54719
	1854.79	33.0626	5.75001
	1856.69	22.3594	4.72857
	1858.58	14.4619	3.80288
	1860.48	10.8455	3.29325
	1862.38	8.70492	2.95041
	1864.28	7.05965	2.657
	1866.18	6.01912	2.45339
	1868.08	5.48646	2.34232
	1869.98	5.67378	2.38197
	1871.88	7.3815	2.71689
	1873.77	12.6239	3.55301
	1875.67	24.6886	4.96876
	1877.57	46.4166	6.81297
	1879.47	83.5769	9.14204
	1881.37	134.14	11.5819
	1883.27	167.693	12.9497
	1885.17	159.141	12.6151
	1887.06	115.313	10.7384
	1888.96	78.1379	8.83957
	1890.86	67.3505	8.20673
	1892.76	69.4147	8.33155
	1894.66	71.6362	8.46382
	1896.56	57.3195	7.57097
	1898.46	38.7209	6.22261
	1900.35	19.4807	4.4137
	1902.25	10.9122	3.30336
	1904.15	6.6116	2.5713
	1906.05	5.56266	2.35853
	1907.95	5.83969	2.41654
	1909.85	9.48264	3.07939
	1911.75	12.6464	3.55617
	1913.64	13.8533	3.722
	1915.54	14.6169	3.8232
	1917.44	16.0194	4.00242
	1919.34	16.6652	4.08231
	1921.24	15.393	3.92339
	1923.14	14.09	3.75366
	1925.04	12.8948	3.59094
	1926.94	7.16954	2.6776
	1928.83	5.47863	2.34065
	1930.73	4.57491	2.1389
	1932.63	4.29274	2.07189
	1934.53	4.48296	2.1173
	1936.43	4.41458	2.10109
	1938.33	4.43659	2.10632
	1940.23	4.15631	2.0387
	1942.12	4.29113	2.0715
	1944.02	4.17023	2.04212
	1945.92	4.55173	2.13348
	1947.82	4.59237	2.14298
	1949.72	4.50855	2.12333
	1951.62	4.46207	2.11236
	1953.52	4.69076	2.16582
	1955.41	4.91948	2.21799
	1957.31	5.10609	2.25967
	1959.21	5.40397	2.32465
	1961.11	5.53688	2.35306
	1963.01	5.47307	2.33946
	1964.91	5.30725	2.30375
	1966.81	5.29606	2.30132
	1968.7	5.70251	2.38799
	1970.6	6.48447	2.54646
	1972.5	7.16253	2.67629
	1974.4	7.91612	2.81356
	1976.3	7.80724	2.79414
	1978.2	7.53955	2.74582
	1980.1	7.42715	2.72528
	1982	7.78588	2.79032
	1983.89	8.10254	2.8465
	1985.79	9.28515	3.04715
	1987.69	11.0611	3.32582
	1989.59	15.045	3.87879
	1991.49	20.0005	4.4722
	1993.39	23.3438	4.83154
	1995.29	23.0833	4.80451
	1997.18	22.3095	4.7233
	1999.08	20.3893	4.51545
	2000.98	18.9382	4.35181
	2002.88	17.0094	4.12425
	2004.78	14.671	3.83027
	2006.68	12.5636	3.54452
	2008.58	11.339	3.36734
	2010.47	10.6352	3.26117
	2012.37	10.2463	3.20099
	2014.27	10.0195	3.16536
	2016.17	9.84418	3.13754
	2018.07	10.3179	3.21214
	2019.97	10.8584	3.29521
	2021.87	11.1064	3.33263
	2023.76	11.0415	3.32287
	2025.66	10.5811	3.25286
	2027.56	10.955	3.30983
	2029.46	11.5558	3.39938
	2031.36	13.8792	3.72548
	2033.26	16.3947	4.04904
	2035.16	35.0196	5.91774
	2037.06	51.5074	7.17687
	2038.95	145.229	12.0511
	2040.85	195.345	13.9766
	2042.75	166.297	12.8956
	2044.65	85.5892	9.25144
	2046.55	87.3763	9.34753
	2048.45	78.822	8.87817
	2050.35	82.0373	9.05744
	2052.24	75.908	8.71252
	2054.14	62.0476	7.87703
	2056.04	42.3662	6.50893
	2057.94	32.5743	5.70739
	2059.84	21.6222	4.64997
	2061.74	16.7386	4.09128
	2063.64	14.3913	3.79359
	2065.53	13.5434	3.68014
	2067.43	13.7848	3.71279
	2069.33	13.4285	3.66449
	2071.23	12.6179	3.55216
	2073.13	11.5336	3.39612
	2075.03	10.8354	3.29172
	2076.93	10.5028	3.2408
	2078.82	10.9386	3.30735
	2080.72	12.9863	3.60365
	2082.62	18.2003	4.26619
	2084.52	30.1211	5.48827
	2086.42	50.6439	7.11645
	2088.32	84.8332	9.21049
	2090.22	123.162	11.0978
	2092.12	155.615	12.4746
	2094.01	173.588	13.1753
	2095.91	175.233	13.2376
	2097.81	159.35	12.6234
	2099.71	132.305	11.5024
	2101.61	107.367	10.3618
	2103.51	90.5348	9.51498
	2105.41	72.933	8.54008
	2107.3	52.2408	7.22778
	2109.2	31.6817	5.62865
	2111.1	17.706	4.20785
	2113	10.4869	3.23835
	2114.9	7.26096	2.69462
	2116.8	5.93156	2.43548
	2118.7	4.98907	2.23362
	2120.59	3.97944	1.99485
	2122.49	2.85861	1.69074
	2124.39	2.35067	1.53319
	2126.29	1.59662	1.26357
	2128.19	1.34305	1.1589
	2130.09	0.933698	0.96628
	2131.99	0.766062	0.87525
	2133.88	0.657921	0.811123
	2135.78	0.887782	0.942222
	2137.68	0.966798	0.983259
	2139.58	1.44163	1.20068
	2141.48	1.9754	1.40549
	2143.38	2.42395	1.55691
	2145.28	2.45032	1.56535
	2147.17	2.23023	1.4934
	2149.07	1.76391	1.32812
	2150.97	1.24182	1.11437
	2152.87	0.646437	0.804013
	2154.77	0.330445	0.574844
	2156.67	0.19893	0.446016
	2158.57	0.00796006	0.0892192
	2160.47	-0.130799	0.361662
	2162.36	-0.231674	0.481325
	2164.26	-0.274904	0.524313
	2166.16	-0.075273	0.274359
	2168.06	0.0133464	0.115526
	2169.96	-0.140293	0.374558
	2171.86	-0.0636002	0.252191
	2173.76	0.287696	0.536373
	2175.65	0.766297	0.875384
	2177.55	1.16401	1.07889
	2179.45	0.945953	0.972601
	2181.35	0.473618	0.688199
	2183.25	0.0827077	0.287589
	2185.15	0.120927	0.347746
	2187.05	-0.0415469	0.20383
	2188.94	0.0149878	0.122425
	2190.84	-0.0137061	0.117073
	2192.74	0.0174248	0.132003
	2194.64	-0.0489418	0.221228
	2196.54	0.0348969	0.186807
	2198.44	0.0922879	0.303789
	2200.34	0.353021	0.594156
	2202.23	0.304297	0.551631
	2204.13	0.0559032	0.236439
	2206.03	0.0412566	0.203117
	2207.93	0.227798	0.477282
	2209.83	0.112781	0.335829
	2211.73	-0.0817931	0.285995
	2213.63	-0.273426	0.522901
	2215.53	-0.239281	0.489164
	2217.42	-0.253861	0.503846
	2219.32	-0.145881	0.381944
	2221.22	0.0643174	0.253609
	2223.12	0.39308	0.626961
	2225.02	0.220371	0.469437
	2226.92	-0.0794253	0.281825
	2228.82	0.0938664	0.306376
	2230.71	0.27755	0.52683
	2232.61	0.433364	0.658304
	2234.51	0.255681	0.505649
	2236.41	0.212588	0.461073
	2238.31	0.100221	0.316576
	2240.21	0.123031	0.350757
	2242.11	0.279468	0.528648
	2244	0.22005	0.469095
	2245.9	0.19555	0.44221
	2247.8	0.242987	0.492938
	2249.7	0.0581162	0.241073
	2251.6	0.325724	0.570722
	2253.5	0.47009	0.685631
	2255.4	0.604665	0.777602
	2257.29	0.523998	0.723877
	2259.19	0.348886	0.590666
	2261.09	0.190702	0.436694
	2262.99	-0.0553213	0.235205
	2264.89	-0.199464	0.446614
	2266.79	-0.204081	0.451753
	2268.69	-0.0430936	0.20759
	2270.59	0.11443	0.338274
	2272.48	0.255263	0.505235
	2274.38	0.161238	0.401545
	2276.28	0.280824	0.529928
	2278.18	0.277119	0.526421
	2280.08	0.175333	0.418728
	2281.98	-0.0819295	0.286233
	2283.88	0.121919	0.349169
	2285.77	0.452948	0.673014
	2287.67	0.424656	0.651657
	2289.57	0.286494	0.535251
	2291.47	0.330009	0.574464
	2293.37	0.500611	0.707539
	2295.27	0.428986	0.65497
	2297.17	0.279598	0.52877
	2299.06	0.0402272	0.200567
	2300.96	-0.034249	0.185065
	2302.86	0.261633	0.511501
	2304.76	0.659427	0.812051
	2306.66	0.497536	0.705362
	2308.56	0.143424	0.378714
	2310.46	0.21465	0.463304
	2312.35	0.238741	0.488611
	2314.25	0.176621	0.420263
	2316.15	-0.162161	0.402692
	2318.05	-0.0764392	0.276476
	2319.95	-0.110424	0.332301
	2321.85	0.078104	0.279471
	2323.75	0.14972	0.386937
	2325.65	0.163246	0.404037
	2327.54	0.0615625	0.248118
	2329.44	0.207937	0.456001
	2331.34	0.16125	0.401559
	2333.24	0.0789846	0.281042
	2335.14	-0.0294175	0.171515
	2337.04	0.041881	0.204649
	2338.94	0.0870403	0.295026
	2340.83	0.129943	0.360476
	2342.73	0.118582	0.344357
	2344.63	0.257645	0.507588
	2346.53	0.180412	0.424749
	2348.43	0.419026	0.647322
	2350.33	0.387345	0.622371
	2352.23	0.58205	0.762922
	2354.12	0.369629	0.607971
	2356.02	0.316381	0.562478
	2357.92	0.30624	0.55339
	2359.82	0.280558	0.529678
	2361.72	0.283767	0.532697
	2363.62	0.27826	0.527503
	2365.52	0.173775	0.416863
	2367.41	0.147569	0.384146
	2369.31	0.225435	0.4748
	2371.21	0.48351	0.695349
	2373.11	0.593045	0.770094
	2375.01	0.598772	0.773803
	2376.91	0.565646	0.752094
	2378.81	0.502431	0.708824
	2380.71	0.515158	0.717745
	2382.6	0.48402	0.695716
	2384.5	0.47755	0.69105
	2386.4	0.282254	0.531276
	2388.3	0.184995	0.430111
	2390.2	-0.115484	0.339829
	2392.1	-0.159315	0.399143
	2394	0.0601438	0.245242
	2395.89	0.329676	0.574174
	2397.79	0.23016	0.47975
	2399.69	0.278229	0.527474
	2401.59	0.105315	0.324523
	2403.49	0.120306	0.346852
	2405.39	0.111964	0.334611
	2407.29	0.0540546	0.232496
	2409.18	-0.00666524	0.0816409
	2411.08	-0.195889	0.442593
	2412.98	-0.0561936	0.237052
	2414.88	0.0804444	0.283627
	2416.78	0.0974375	0.31215
	2418.68	0.0358863	0.189437
	2420.58	-0.0610853	0.247154
	2422.47	-0.0578917	0.240607
	2424.37	0.0391198	0.197787
