Wavelength(nm)  Intensity
690.49	2922.00
690.67	2926.00
690.84	2943.00
691.02	2946.00
691.19	2953.00
691.36	2962.00
691.54	2979.00
691.71	2997.00
691.89	3003.00
692.06	3020.00
692.24	3037.00
692.41	3031.00
692.59	3063.00
692.76	3075.00
692.93	3095.00
693.11	3102.00
693.28	3138.00
693.46	3144.00
693.63	3183.00
693.80	3195.00
693.98	3211.00
694.15	3217.00
694.33	3225.00
694.50	3256.00
694.67	3261.00
694.85	3279.00
695.02	3303.00
695.20	3309.00
695.37	3323.00
695.54	3341.00
695.72	3358.00
695.89	3355.00
696.07	3392.00
696.24	3407.00
696.41	3451.00
696.59	3446.00
696.76	3467.00
696.93	3501.00
697.11	3503.00
697.28	3529.00
697.45	3528.00
697.63	3538.00
697.80	3553.00
697.97	3565.00
698.15	3567.00
698.32	3578.00
698.49	3604.00
698.67	3614.00
698.84	3624.00
699.01	3625.00
699.19	3663.00
699.36	3662.00
699.53	3688.00
699.70	3676.00
699.88	3680.00
700.05	3698.00
700.22	3714.00
700.40	3728.00
700.57	3713.00
700.74	3725.00
700.91	3737.00
701.09	3746.00
701.26	3753.00
701.43	3737.00
701.60	3747.00
701.78	3746.00
701.95	3760.00
702.12	3757.00
702.29	3734.00
702.47	3746.00
702.64	3752.00
702.81	3767.00
702.98	3769.00
703.16	3754.00
703.33	3765.00
703.50	3792.00
703.67	3775.00
703.85	3781.00
704.02	3767.00
704.19	3778.00
704.36	3780.00
704.53	3805.00
704.71	3816.00
704.88	3833.00
705.05	3820.00
705.22	3827.00
705.39	3841.00
705.56	3866.00
705.74	3888.00
705.91	3896.00
706.08	3918.00
706.25	3941.00
706.42	3967.00
706.59	3983.00
706.77	4015.00
706.94	4041.00
707.11	4067.00
707.28	4103.00
707.45	4150.00
707.62	4205.00
707.80	4244.00
707.97	4294.00
708.14	4361.00
708.31	4438.00
708.48	4529.00
708.65	4656.00
708.82	4782.00
708.99	4898.00
709.16	4996.00
709.34	5089.00
709.51	5173.00
709.68	5322.00
709.85	5416.00
710.02	5550.00
710.19	5668.00
710.36	5719.00
710.53	5810.00
710.70	5881.00
710.87	5943.00
711.04	5994.00
711.22	6068.00
711.39	6118.00
711.56	6177.00
711.73	6203.00
711.90	6215.00
712.07	6219.00
712.24	6220.00
712.41	6216.00
712.58	6252.00
712.75	6267.00
712.92	6254.00
713.09	6237.00
713.26	6264.00
713.43	6323.00
713.60	6397.00
713.77	6429.00
713.94	6477.00
714.11	6543.00
714.28	6639.00
714.45	6721.00
714.62	6825.00
714.79	6937.00
714.96	7043.00
715.13	7142.00
715.30	7225.00
715.47	7345.00
715.64	7492.00
715.81	7619.00
715.98	7725.00
716.15	7817.00
716.32	7932.00
716.49	8119.00
716.66	8224.00
716.83	8316.00
717.00	8503.00
717.17	8547.00
717.34	8655.00
717.51	8748.00
717.68	8829.00
717.85	8948.00
718.02	9014.00
718.19	9023.00
718.35	9083.00
718.52	9095.00
718.69	9094.00
718.86	9110.00
719.03	9145.00
719.20	9127.00
719.37	9160.00
719.54	9139.00
719.71	9068.00
719.88	9023.00
720.05	8999.00
720.21	8971.00
720.38	9004.00
720.55	8883.00
720.72	8819.00
720.89	8769.00
721.06	8699.00
721.23	8655.00
721.40	8595.00
721.56	8489.00
721.73	8457.00
721.90	8399.00
722.07	8376.00
722.24	8308.00
722.41	8186.00
722.58	8069.00
722.74	7981.00
722.91	7968.00
723.08	7930.00
723.25	7837.00
723.42	7799.00
723.59	7758.00
723.75	7708.00
723.92	7627.00
724.09	7559.00
724.26	7495.00
724.43	7448.00
724.59	7422.00
724.76	7444.00
724.93	7383.00
725.10	7333.00
725.27	7251.00
725.43	7232.00
725.60	7188.00
725.77	7158.00
725.94	7134.00
726.10	7029.00
726.27	6976.00
726.44	6943.00
726.61	6932.00
726.78	6895.00
726.94	6847.00
727.11	6819.00
727.28	6793.00
727.45	6724.00
727.61	6658.00
727.78	6636.00
727.95	6598.00
728.11	6550.00
728.28	6509.00
728.45	6489.00
728.62	6450.00
728.78	6400.00
728.95	6386.00
729.12	6387.00
729.29	6374.00
729.45	6332.00
729.62	6314.00
729.79	6249.00
729.95	6232.00
730.12	6225.00
730.29	6199.00
730.45	6178.00
730.62	6159.00
730.79	6161.00
730.95	6145.00
731.12	6121.00
731.29	6082.00
731.45	6116.00
731.62	6089.00
731.79	6018.00
731.95	5968.00
732.12	5967.00
732.29	5934.00
732.45	5934.00
732.62	5895.00
732.79	5889.00
732.95	5838.00
733.12	5847.00
733.28	5802.00
733.45	5787.00
733.62	5824.00
733.78	5783.00
733.95	5763.00
734.12	5738.00
734.28	5757.00
734.45	5752.00
734.61	5737.00
734.78	5735.00
734.95	5725.00
735.11	5703.00
735.28	5659.00
735.44	5630.00
735.61	5645.00
735.77	5628.00
735.94	5625.00
736.11	5586.00
736.27	5582.00
736.44	5587.00
736.60	5534.00
736.77	5503.00
736.93	5470.00
737.10	5466.00
737.26	5437.00
737.43	5429.00
737.60	5419.00
737.76	5405.00
737.93	5388.00
738.09	5403.00
738.26	5384.00
738.42	5391.00
738.59	5362.00
738.75	5380.00
738.92	5358.00
739.08	5355.00
739.25	5299.00
739.41	5304.00
739.58	5300.00
739.74	5286.00
739.91	5281.00
740.07	5287.00
740.24	5293.00
740.40	5263.00
740.57	5225.00
740.73	5215.00
740.90	5184.00
741.06	5179.00
741.23	5214.00
741.39	5195.00
741.55	5188.00
741.72	5179.00
741.88	5175.00
742.05	5176.00
742.21	5160.00
742.38	5131.00
742.54	5122.00
742.71	5096.00
742.87	5079.00
743.03	5059.00
743.20	5068.00
743.36	5059.00
743.53	5069.00
743.69	5043.00
743.86	5011.00
744.02	5007.00
744.18	4995.00
744.35	5005.00
744.51	4985.00
744.67	4996.00
744.84	4975.00
745.00	4987.00
745.17	4974.00
745.33	4970.00
745.49	4959.00
745.66	4939.00
745.82	4944.00
745.99	4922.00
746.15	4916.00
746.31	4902.00
746.48	4913.00
746.64	4891.00
746.80	4896.00
746.97	4874.00
747.13	4857.00
747.29	4822.00
747.46	4821.00
747.62	4830.00
747.78	4847.00
747.95	4826.00
748.11	4815.00
748.27	4810.00
748.44	4807.00
748.60	4788.00
748.76	4766.00
748.92	4774.00
749.09	4742.00
749.25	4751.00
749.41	4719.00
749.58	4726.00
749.74	4719.00
749.90	4693.00
750.07	4683.00
750.23	4672.00
750.39	4714.00
750.55	4702.00
750.72	4692.00
750.88	4675.00
751.04	4648.00
751.20	4663.00
751.37	4653.00
751.53	4677.00
751.69	4636.00
751.85	4657.00
752.02	4617.00
752.18	4614.00
752.34	4635.00
752.50	4641.00
752.67	4662.00
752.83	4628.00
752.99	4618.00
753.15	4617.00
753.31	4603.00
753.48	4588.00
753.64	4555.00
753.80	4555.00
753.96	4527.00
754.12	4527.00
754.29	4518.00
754.45	4522.00
754.61	4521.00
754.77	4506.00
754.93	4459.00
755.09	4458.00
755.26	4477.00
755.42	4481.00
755.58	4459.00
755.74	4436.00
755.90	4438.00
756.06	4447.00
756.23	4445.00
756.39	4429.00
756.55	4419.00
756.71	4409.00
756.87	4403.00
757.03	4396.00
757.19	4374.00
757.36	4380.00
757.52	4345.00
757.68	4323.00
757.84	4345.00
758.00	4325.00
758.16	4338.00
758.32	4336.00
758.48	4320.00
758.64	4295.00
758.80	4310.00
758.97	4305.00
759.13	4282.00
759.29	4272.00
759.45	4266.00
759.61	4240.00
759.77	4251.00
759.93	4255.00
760.09	4253.00
760.25	4268.00
760.41	4271.00
760.57	4293.00
760.73	4272.00
760.89	4289.00
761.05	4245.00
761.21	4257.00
761.38	4260.00
761.54	4244.00
761.70	4245.00
761.86	4251.00
762.02	4232.00
762.18	4241.00
762.34	4225.00
762.50	4212.00
762.66	4211.00
762.82	4204.00
762.98	4183.00
763.14	4189.00
763.30	4200.00
763.46	4289.00
763.62	4294.00
763.78	4204.00
763.94	4157.00
764.10	4098.00
764.26	4112.00
764.42	4091.00
764.58	4096.00
764.74	4077.00
764.90	4086.00
765.05	4084.00
765.21	4079.00
765.37	4098.00
765.53	4097.00
765.69	4095.00
765.85	4070.00
766.01	4072.00
766.17	4049.00
766.33	4041.00
766.49	4038.00
766.65	4029.00
766.81	4042.00
766.97	4041.00
767.13	4038.00
767.29	4039.00
767.44	4009.00
767.60	4010.00
767.76	4018.00
767.92	4003.00
768.08	4017.00
768.24	3997.00
768.40	3996.00
768.56	3968.00
768.72	3977.00
768.88	3979.00
769.03	3984.00
769.19	3968.00
769.35	3969.00
769.51	3970.00
769.67	3958.00
769.83	3928.00
769.99	3932.00
770.14	3925.00
770.30	3919.00
770.46	3919.00
770.62	3918.00
770.78	3933.00
770.94	3926.00
771.09	3912.00
771.25	3908.00
771.41	3922.00
771.57	3930.00
771.73	3901.00
771.89	3904.00
772.04	3905.00
772.20	3906.00
772.36	3930.00
772.52	3946.00
772.68	3925.00
772.83	3912.00
772.99	3899.00
773.15	3899.00
773.31	3879.00
773.46	3872.00
773.62	3856.00
773.78	3840.00
773.94	3844.00
774.10	3847.00
774.25	3831.00
774.41	3824.00
774.57	3824.00
774.73	3823.00
774.88	3812.00
775.04	3801.00
775.20	3817.00
775.36	3794.00
775.51	3800.00
775.67	3807.00
775.83	3813.00
775.98	3818.00
776.14	3814.00
776.30	3819.00
776.46	3803.00
776.61	3789.00
776.77	3783.00
776.93	3789.00
777.08	3765.00
777.24	3753.00
777.40	3757.00
777.56	3749.00
777.71	3763.00
777.87	3755.00
778.03	3743.00
778.18	3761.00
778.34	3731.00
778.50	3726.00
778.65	3730.00
778.81	3714.00
778.97	3698.00
779.12	3718.00
779.28	3688.00
779.44	3693.00
779.59	3697.00
779.75	3709.00
779.90	3698.00
780.06	3731.00
780.22	3729.00
780.37	3712.00
780.53	3699.00
780.69	3704.00
780.84	3681.00
781.00	3695.00
781.15	3693.00
781.31	3666.00
781.47	3676.00
781.62	3659.00
781.78	3658.00
781.93	3657.00
782.09	3655.00
782.25	3637.00
782.40	3629.00
782.56	3617.00
782.71	3608.00
782.87	3608.00
783.02	3612.00
783.18	3593.00
783.34	3586.00
783.49	3586.00
783.65	3595.00
783.80	3597.00
783.96	3592.00
784.11	3584.00
784.27	3595.00
784.42	3591.00
784.58	3609.00
784.73	3592.00
784.89	3600.00
785.05	3597.00
785.20	3587.00
785.36	3577.00
785.51	3583.00
785.67	3575.00
785.82	3575.00
785.98	3583.00
786.13	3566.00
786.29	3556.00
786.44	3564.00
786.60	3564.00
786.75	3560.00
786.91	3556.00
787.06	3529.00
787.21	3548.00
787.37	3545.00
787.52	3526.00
787.68	3538.00
787.83	3497.00
787.99	3497.00
788.14	3507.00
788.30	3490.00
788.45	3505.00
788.61	3511.00
788.76	3503.00
788.91	3500.00
789.07	3507.00
789.22	3518.00
789.38	3496.00
789.53	3502.00
789.69	3492.00
789.84	3498.00
789.99	3490.00
790.15	3498.00
790.30	3495.00
790.46	3500.00
790.61	3489.00
790.76	3491.00
790.92	3478.00
791.07	3481.00
791.23	3473.00
791.38	3477.00
791.53	3470.00
791.69	3466.00
791.84	3459.00
791.99	3446.00
792.15	3455.00
792.30	3463.00
792.46	3465.00
792.61	3460.00
792.76	3441.00
792.92	3443.00
793.07	3440.00
793.22	3441.00
793.38	3431.00
793.53	3446.00
793.68	3429.00
793.84	3436.00
793.99	3429.00
794.14	3424.00
794.30	3411.00
794.45	3419.00
794.60	3437.00
794.75	3472.00
794.91	3485.00
795.06	3440.00
795.21	3428.00
795.37	3419.00
795.52	3429.00
795.67	3422.00
795.83	3431.00
795.98	3433.00
796.13	3423.00
796.28	3406.00
796.44	3414.00
796.59	3386.00
796.74	3385.00
796.89	3405.00
797.05	3388.00
797.20	3373.00
797.35	3371.00
797.50	3380.00
797.66	3385.00
797.81	3378.00
797.96	3393.00
798.11	3386.00
798.27	3404.00
798.42	3380.00
798.57	3491.00
798.72	3374.00
798.87	3377.00
799.03	3367.00
799.18	3367.00
799.33	3369.00
799.48	3366.00
799.63	3382.00
799.79	3376.00
799.94	3370.00
800.09	3371.00
800.24	3379.00
800.39	3381.00
800.54	3399.00
800.70	3394.00
800.85	3389.00
801.00	3376.00
801.15	3370.00
801.30	3387.00
801.45	3438.00
801.61	3413.00
801.76	3367.00
801.91	3359.00
802.06	3342.00
802.21	3355.00
802.36	3329.00
802.51	3340.00
802.67	3330.00
802.82	3343.00
802.97	3331.00
803.12	3339.00
803.27	3333.00
803.42	3318.00
803.57	3325.00
803.72	3313.00
803.87	3311.00
804.02	3320.00
804.18	3309.00
804.33	3317.00
804.48	3326.00
804.63	3309.00
804.78	3326.00
804.93	3326.00
805.08	3318.00
805.23	3297.00
805.38	3308.00
805.53	3317.00
805.68	3309.00
805.83	3309.00
805.98	3306.00
806.13	3314.00
806.28	3290.00
806.44	3291.00
806.59	3289.00
806.74	3287.00
806.89	3280.00
807.04	3290.00
807.19	3288.00
807.34	3282.00
807.49	3279.00
807.64	3290.00
807.79	3285.00
807.94	3274.00
808.09	3291.00
808.24	3280.00
808.39	3298.00
808.54	3291.00
808.69	3268.00
808.84	3278.00
808.99	3283.00
809.14	3291.00
809.29	3298.00
809.44	3283.00
809.58	3282.00
809.73	3278.00
809.88	3281.00
810.03	3284.00
810.18	3308.00
810.33	3365.00
810.48	3355.00
810.63	3304.00
810.78	3302.00
810.93	3307.00
811.08	3293.00
811.23	3297.00
811.38	3409.00
811.53	3594.00
811.68	3461.00
811.83	3389.00
811.97	3343.00
812.12	3332.00
812.27	3320.00
812.42	3287.00
812.57	3285.00
812.72	3270.00
812.87	3268.00
813.02	3246.00
813.17	3258.00
813.31	3262.00
813.46	3245.00
813.61	3239.00
813.76	3258.00
813.91	3247.00
814.06	3244.00
814.21	3245.00
814.35	3247.00
814.50	3255.00
814.65	3247.00
814.80	3251.00
814.95	3265.00
815.10	3257.00
815.25	3243.00
815.39	3234.00
815.54	3251.00
815.69	3254.00
815.84	3239.00
815.99	3261.00
816.13	3251.00
816.28	3234.00
816.43	3233.00
816.58	3237.00
816.73	3229.00
816.87	3220.00
817.02	3224.00
817.17	3216.00
817.32	3209.00
817.47	3210.00
817.61	3205.00
817.76	3214.00
817.91	3197.00
818.06	3203.00
818.20	3207.00
818.35	3207.00
818.50	3206.00
818.65	3193.00
818.79	3202.00
818.94	3206.00
819.09	3190.00
819.24	3190.00
819.38	3214.00
819.53	3199.00
819.68	3200.00
819.83	3198.00
819.97	3204.00
820.12	3198.00
820.27	3188.00
820.41	3199.00
820.56	3201.00
820.71	3199.00
820.86	3181.00
821.00	3187.00
821.15	3192.00
821.30	3175.00
821.44	3186.00
821.59	3172.00
821.74	3168.00
821.88	3165.00
822.03	3153.00
822.18	3175.00
822.32	3164.00
822.47	3163.00
822.62	3167.00
822.76	3157.00
822.91	3146.00
823.06	3156.00
823.20	3148.00
823.35	3164.00
823.49	3148.00
823.64	3164.00
823.79	3156.00
823.93	3152.00
824.08	3163.00
824.23	3151.00
824.37	3172.00
824.52	3162.00
824.66	3160.00
824.81	3177.00
824.96	3163.00
825.10	3169.00
825.25	3178.00
825.39	3163.00
825.54	3175.00
825.69	3154.00
825.83	3154.00
825.98	3168.00
826.12	3171.00
826.27	3179.00
826.41	3216.00
826.56	3197.00
826.71	3173.00
826.85	3170.00
827.00	3156.00
827.14	3151.00
827.29	3150.00
827.43	3139.00
827.58	3124.00
827.72	3127.00
827.87	3123.00
828.01	3127.00
828.16	3123.00
828.30	3116.00
828.45	3118.00
828.59	3120.00
828.74	3119.00
828.89	3100.00
829.03	3129.00
829.18	3122.00
829.32	3122.00
829.46	3127.00
829.61	3121.00
829.75	3127.00
829.90	3134.00
830.04	3133.00
830.19	3133.00
830.33	3127.00
830.48	3119.00
830.62	3125.00
830.77	3137.00
830.91	3139.00
831.06	3134.00
831.20	3126.00
831.35	3128.00
831.49	3130.00
831.63	3109.00
831.78	3129.00
831.92	3126.00
832.07	3126.00
832.21	3129.00
832.36	3126.00
832.50	3120.00
832.64	3118.00
832.79	3120.00
832.93	3106.00
833.08	3113.00
833.22	3112.00
833.36	3122.00
833.51	3113.00
833.65	3124.00
833.80	3130.00
833.94	3110.00
834.08	3116.00
834.23	3130.00
834.37	3126.00
834.51	3116.00
834.66	3113.00
834.80	3124.00
834.95	3124.00
835.09	3129.00
835.23	3127.00
835.38	3133.00
835.52	3145.00
835.66	3127.00
835.81	3123.00
835.95	3126.00
836.09	3136.00
836.24	3139.00
836.38	3131.00
836.52	3126.00
836.67	3125.00
836.81	3122.00
836.95	3124.00
837.10	3114.00
837.24	3111.00
837.38	3101.00
837.52	3108.00
837.67	3093.00
837.81	3093.00
837.95	3095.00
838.10	3080.00
838.24	3083.00
838.38	3094.00
838.52	3098.00
838.67	3090.00
838.81	3076.00
838.95	3075.00
839.09	3086.00
839.24	3069.00
839.38	3086.00
839.52	3083.00
839.66	3074.00
839.81	3081.00
839.95	3071.00
840.09	3083.00
840.23	3083.00
840.38	3096.00
840.52	3100.00
840.66	3129.00
840.80	3190.00
840.94	3159.00
841.09	3135.00
841.23	3100.00
841.37	3111.00
841.51	3123.00
841.65	3111.00
841.80	3096.00
841.94	3097.00
842.08	3102.00
842.22	3106.00
842.36	3212.00
842.50	3255.00
842.65	3182.00
842.79	3129.00
842.93	3113.00
843.07	3101.00
843.21	3091.00
843.35	3087.00
843.50	3071.00
843.64	3070.00
843.78	3062.00
843.92	3063.00
844.06	3062.00
844.20	3047.00
844.34	3060.00
844.48	3045.00
844.63	3055.00
844.77	3057.00
844.91	3053.00
845.05	3051.00
845.19	3051.00
845.33	3060.00
845.47	3068.00
845.61	3065.00
845.75	3064.00
845.90	3067.00
846.04	3069.00
846.18	3051.00
846.32	3050.00
846.46	3037.00
846.60	3039.00
846.74	3031.00
846.88	3018.00
847.02	3017.00
847.16	3021.00
847.30	3003.00
847.44	3005.00
847.58	2994.00
847.72	3009.00
847.86	3027.00
848.00	3014.00
848.14	3013.00
848.28	3022.00
848.42	3022.00
848.56	3034.00
848.70	3014.00
848.84	3014.00
848.99	3018.00
849.13	2997.00
849.27	2999.00
849.41	2989.00
849.54	2992.00
849.68	2991.00
849.82	2992.00
849.96	2995.00
850.10	2999.00
850.24	2987.00
850.38	2979.00
850.52	2966.00
850.66	2957.00
850.80	2963.00
850.94	2973.00
851.08	2990.00
851.22	2963.00
851.36	2976.00
851.50	2444.00
851.64	2426.00
851.78	2433.00
851.92	2433.00
852.06	2879.00
852.20	2876.00
852.34	2889.00
852.48	2897.00
852.61	2910.00
852.75	2913.00
852.89	2963.00
853.03	2951.00
853.17	2943.00
853.31	2945.00
853.45	2984.00
853.59	2991.00
853.73	2435.00
853.87	2438.00
854.00	2434.00
854.14	2428.00
