Generated file C:/Users/didvk/Downloads/Dioptas_Win64_0.5.0/1_mask&dat&fxye_1position/14_ReMoB2_635psi_noRuby_S_P1_C1_D1w_091.fxye using DIOPTAS
# == pyFAI calibration ==
# Distance Sample to Detector: 0.21643023575112377 m
# PONI: 8.848e-02, 8.638e-02 m
# Rotations: 0.008179 -0.001145 -0.000000 rad
# 
# == Fit2d calibration ==
# Distance Sample-beamCenter: 216.438 mm
# Center: x=491.896, y=512.970 pix
# Tilt: 0.473 deg  TiltPlanRot: -172.032 deg
# 
# Detector Pilatus CdTe 1M	 PixelSize= 1.720e-04, 1.720e-04 m
#    Detector has a mask: True 
#    Detector has a dark current: False 
#    detector has a flat field: False 
# 
# Wavelength: 4.133e-11 m
# Mask applied: None
# Dark current applied: None
# Flat field applied: None
# Polarization factor: None
# Normalization factor: None
BANK	1	1006	1006 CONS	293.393	1.90033 0.4133 0.0 FXYE
	293.393	0.265275	0.515049
	295.294	0.344127	0.586623
	297.194	0.70668	0.840643
	299.094	0.66328	0.81442
	300.995	0.537975	0.733468
	302.895	0.118021	0.343541
	304.795	0.805577	0.897539
	306.696	1.04221	1.02089
	308.596	0.869218	0.932319
	310.496	0.461017	0.678982
	312.397	0.790518	0.889111
	314.297	0.849839	0.921867
	316.197	0.632698	0.795423
	318.098	0.717607	0.847117
	319.998	1.18986	1.0908
	321.898	1.43667	1.19861
	323.799	1.63974	1.28052
	325.699	1.83478	1.35454
	327.599	2.05214	1.43253
	329.5	1.73772	1.31823
	331.4	1.46773	1.2115
	333.3	1.49263	1.22173
	335.201	1.38716	1.17778
	337.101	0.795872	0.892117
	339.001	0.493576	0.702549
	340.902	0.826528	0.909136
	342.802	2.15329	1.46741
	344.702	2.94368	1.71572
	346.603	3.6361	1.90686
	348.503	4.59485	2.14356
	350.403	6.00531	2.45057
	352.304	8.44232	2.90557
	354.204	10.5361	3.24594
	356.104	12.2102	3.49432
	358.005	11.4774	3.38783
	359.905	9.66273	3.10849
	361.805	7.12699	2.66964
	363.706	5.20639	2.28175
	365.606	3.59994	1.89735
	367.506	2.53343	1.59167
	369.407	1.77284	1.33148
	371.307	1.37514	1.17266
	373.207	1.5408	1.24129
	375.108	1.571	1.25339
	377.008	1.73122	1.31576
	378.908	1.07984	1.03915
	380.808	0.706153	0.840329
	382.709	0.96398	0.981825
	384.609	1.34857	1.16128
	386.509	1.1039	1.05066
	388.41	0.794623	0.891416
	390.31	0.504978	0.710618
	392.21	0.85975	0.927227
	394.111	1.01848	1.0092
	396.011	0.755261	0.869058
	397.911	0.94577	0.972507
	399.812	0.847898	0.920814
	401.712	0.931721	0.965257
	403.612	0.819462	0.905241
	405.513	1.09292	1.04543
	407.413	1.00244	1.00122
	409.313	1.16557	1.07962
	411.214	1.15554	1.07496
	413.114	0.737538	0.8588
	415.014	0.252768	0.502761
	416.915	0.238548	0.488414
	418.815	0.769133	0.877002
	420.715	0.770133	0.877572
	422.616	0.178115	0.422036
	424.516	-0.229872	0.479449
	426.416	-0.148412	0.385243
	428.317	0.0316786	0.177985
	430.217	0.54683	0.73948
	432.117	0.623967	0.789916
	434.018	0.750301	0.866199
	435.918	0.779256	0.882755
	437.818	0.975751	0.987801
	439.719	1.31724	1.14771
	441.619	1.66366	1.28983
	443.519	1.39076	1.1793
	445.42	1.53452	1.23876
	447.32	1.41908	1.19125
	449.22	1.66399	1.28996
	451.121	1.13299	1.06442
	453.021	0.68234	0.826039
	454.921	0.770723	0.877908
	456.822	0.836907	0.914826
	458.722	0.898664	0.947979
	460.622	0.762037	0.872947
	462.523	0.537376	0.73306
	464.423	0.621419	0.788301
	466.323	1.0213	1.01059
	468.224	0.853638	0.923925
	470.124	0.676081	0.822242
	472.024	0.358168	0.598472
	473.924	0.644958	0.803093
	475.825	0.635811	0.797378
	477.725	0.144022	0.379502
	479.625	-0.176413	0.420015
	481.526	0.31583	0.561987
	483.426	1.04841	1.02392
	485.326	1.21443	1.10201
	487.227	0.881493	0.938879
	489.127	0.121772	0.348959
	491.027	-0.0368825	0.192048
	492.928	-0.357079	0.597561
	494.828	0.54068	0.735309
	496.728	0.61381	0.78346
	498.629	0.61056	0.781384
	500.529	0.20436	0.452062
	502.429	0.335808	0.579489
	504.33	0.723922	0.850836
	506.23	0.430847	0.656389
	508.13	0.758207	0.870751
	510.031	1.10282	1.05015
	511.931	1.58371	1.25845
	513.831	1.64364	1.28204
	515.732	0.866301	0.930753
	517.632	0.548146	0.740369
	519.532	0.364368	0.603629
	521.433	0.965767	0.982735
	523.333	1.4563	1.20677
	525.233	1.43432	1.19763
	527.134	1.3205	1.14913
	529.034	1.13282	1.06434
	530.934	0.359701	0.59975
	532.835	0.00588974	0.0767447
	534.735	0.120474	0.347093
	536.635	0.648149	0.805077
	538.536	0.474994	0.689198
	540.436	-0.0495523	0.222603
	542.336	-0.240408	0.490315
	544.237	-0.0560168	0.236679
	546.137	0.311061	0.557729
	548.037	0.814602	0.902553
	549.938	1.06622	1.03258
	551.838	1.09727	1.04751
	553.738	1.20644	1.09838
	555.639	0.751339	0.866798
	557.539	0.852569	0.923347
	559.439	0.704533	0.839364
	561.34	0.793384	0.890721
	563.24	0.446344	0.66809
	565.14	0.659555	0.81213
	567.041	0.790707	0.889217
	568.941	0.758838	0.871113
	570.841	0.610148	0.78112
	572.741	0.349656	0.591317
	574.642	0.666509	0.8164
	576.542	0.397061	0.630128
	578.442	0.388591	0.62337
	580.343	0.289764	0.538297
	582.243	0.781341	0.883935
	584.143	1.02894	1.01437
	586.044	1.64063	1.28087
	587.944	1.4773	1.21544
	589.844	1.71415	1.30926
	591.745	1.11753	1.05713
	593.645	1.16802	1.08075
	595.545	1.45425	1.20592
	597.446	1.75006	1.3229
	599.346	1.60449	1.26668
	601.246	1.47427	1.2142
	603.147	1.57648	1.25558
	605.047	1.56643	1.25157
	606.947	1.27493	1.12913
	608.848	0.823232	0.907321
	610.748	0.930533	0.964641
	612.648	0.57193	0.75626
	614.549	0.549127	0.741031
	616.449	0.568272	0.753838
	618.349	0.751378	0.866821
	620.25	0.291174	0.539605
	622.15	-0.00986911	0.0993434
	624.05	-0.199851	0.447047
	625.951	-0.0950158	0.308246
	627.851	-0.149002	0.386008
	629.751	-0.144542	0.380186
	631.652	-0.0555657	0.235724
	633.552	-0.0650476	0.255044
	635.452	-0.26178	0.511644
	637.353	-0.256099	0.506063
	639.253	0.417812	0.646384
	641.153	0.966038	0.982872
	643.054	1.31908	1.14851
	644.954	1.93764	1.39199
	646.854	2.45387	1.56648
	648.755	3.11078	1.76374
	650.655	3.83523	1.95837
	652.555	5.4247	2.3291
	654.456	7.01473	2.64853
	656.356	7.81835	2.79613
	658.256	6.6371	2.57626
	660.157	4.61233	2.14763
	662.057	2.93014	1.71176
	663.957	2.17628	1.47522
	665.857	1.70866	1.30716
	667.758	1.13765	1.06661
	669.658	0.621517	0.788363
	671.558	0.629754	0.79357
	673.459	0.852305	0.923204
	675.359	1.30089	1.14057
	677.259	1.46643	1.21096
	679.16	2.30282	1.51751
	681.06	3.50316	1.87167
	682.96	5.28434	2.29877
	684.861	6.80743	2.6091
	686.761	8.03341	2.83433
	688.661	8.75489	2.95887
	690.562	9.82136	3.1339
	692.462	9.90887	3.14784
	694.362	10.3978	3.22457
	696.263	10.5458	3.24743
	698.163	11.2038	3.3472
	700.063	12.0431	3.47031
	701.964	14.4276	3.79836
	703.864	18.4943	4.3005
	705.764	23.8634	4.88501
	707.665	31.6704	5.62764
	709.565	40.6059	6.37227
	711.465	49.3832	7.02732
	713.366	57.6867	7.59518
	715.266	60.0156	7.74698
	717.166	56.3232	7.50488
	719.067	49.5535	7.03943
	720.967	41.5721	6.44764
	722.867	33.1271	5.75561
	724.768	26.3147	5.12979
	726.668	20.3394	4.50993
	728.568	15.6189	3.95208
	730.469	12.1223	3.4817
	732.369	9.3989	3.06576
	734.269	7.58598	2.75427
	736.17	6.0748	2.46471
	738.07	5.05059	2.24735
	739.97	4.29881	2.07336
	741.871	3.56159	1.88722
	743.771	3.06611	1.75103
	745.671	2.55739	1.59918
	747.572	2.16802	1.47242
	749.472	2.0051	1.41601
	751.372	2.06717	1.43776
	753.273	1.90869	1.38155
	755.173	1.23542	1.11149
	757.073	0.882594	0.939465
	758.973	0.732942	0.85612
	760.874	0.639342	0.799589
	762.774	0.66605	0.816119
	764.674	0.614597	0.783962
	766.575	0.805083	0.897264
	768.475	0.886972	0.941792
	770.375	0.451486	0.671927
	772.276	0.413656	0.643161
	774.176	0.457044	0.67605
	776.076	0.491791	0.701278
	777.977	0.605352	0.778043
	779.877	0.417642	0.646252
	781.777	0.117643	0.342991
	783.678	-0.0576684	0.240142
	785.578	-0.0451383	0.212458
	787.478	0.323617	0.568873
	789.379	0.336753	0.580304
	791.279	0.16225	0.402802
	793.179	0.0536799	0.231689
	795.08	0.376862	0.613891
	796.98	0.49873	0.706208
	798.88	0.596066	0.772053
	800.781	0.70649	0.84053
	802.681	0.571328	0.755863
	804.581	0.304767	0.552057
	806.482	0.0560844	0.236821
	808.382	0.15255	0.390577
	810.282	0.266169	0.515915
	812.183	0.600569	0.774964
	814.083	0.865722	0.930442
	815.983	0.947246	0.973266
	817.884	0.637078	0.798172
	819.784	0.373888	0.611464
	821.684	0.188024	0.433617
	823.585	0.593329	0.770279
	825.485	0.842677	0.917974
	827.385	0.731121	0.855056
	829.286	0.290212	0.538713
	831.186	0.232627	0.482315
	833.086	-0.100565	0.317119
	834.987	-0.43775	0.661627
	836.887	-0.112365	0.335208
	838.787	0.355576	0.596302
	840.688	1.05272	1.02602
	842.588	1.25014	1.1181
	844.488	1.10661	1.05195
	846.389	0.670942	0.819111
	848.289	0.453862	0.673693
	850.189	0.280277	0.529412
	852.089	0.529117	0.727404
	853.99	0.631995	0.794981
	855.89	0.755443	0.869162
	857.79	0.383559	0.619321
	859.691	-0.0618315	0.248659
	861.591	-0.28382	0.532747
	863.491	-0.200837	0.448148
	865.392	0.178745	0.422783
	867.292	0.408733	0.639323
	869.192	0.43826	0.662012
	871.093	-0.082029	0.286407
	872.993	-0.332965	0.577031
	874.893	-0.53974	0.73467
	876.794	-0.159272	0.399089
	878.694	-0.213312	0.461857
	880.594	-0.316645	0.562713
	882.495	-0.269357	0.518996
	884.395	-0.0112974	0.106289
	886.295	0.27745	0.526735
	888.196	0.631821	0.794872
	890.096	0.630869	0.794273
	891.996	0.738801	0.859535
	893.897	0.919292	0.958797
	895.797	1.01363	1.00679
	897.697	1.17901	1.08582
	899.598	1.27393	1.12869
	901.498	1.82316	1.35024
	903.398	2.07316	1.43985
	905.299	2.04014	1.42833
	907.199	2.57624	1.60507
	909.099	3.689	1.92068
	911	5.54762	2.35534
	912.9	7.38451	2.71745
	914.8	8.9377	2.9896
	916.701	11.0034	3.31714
	918.601	13.4821	3.6718
	920.501	17.1385	4.13987
	922.402	22.1822	4.7098
	924.302	28.6344	5.35112
	926.202	36.4394	6.03651
	928.103	47.0291	6.85778
	930.003	61.0678	7.81459
	931.903	81.4614	9.0256
	933.804	106.699	10.3295
	935.704	136.567	11.6862
	937.604	168.061	12.9638
	939.505	199.142	14.1118
	941.405	227.607	15.0866
	943.305	248.61	15.7674
	945.206	262.11	16.1898
	947.106	265.481	16.2936
	949.006	262.369	16.1978
	950.906	252.886	15.9024
	952.807	239.016	15.4602
	954.707	221.072	14.8685
	956.607	202.243	14.2212
	958.508	182.86	13.5226
	960.408	164.912	12.8418
	962.308	150.426	12.2648
	964.209	139.567	11.8139
	966.109	131.995	11.4889
	968.009	127.471	11.2903
	969.91	124.942	11.1778
	971.81	123.502	11.1132
	973.71	123.261	11.1023
	975.611	122.058	11.048
	977.511	121.76	11.0345
	979.411	119.362	10.9253
	981.312	117.031	10.8181
	983.212	113.276	10.6431
	985.112	108.548	10.4186
	987.013	103.135	10.1555
	988.913	97.5003	9.87422
	990.813	90.5586	9.51623
	992.714	83.146	9.11844
	994.614	75.2092	8.67232
	996.514	67.5686	8.22001
	998.415	60.1879	7.75808
	1000.31	52.2214	7.22644
	1002.22	45.1529	6.71959
	1004.12	38.7321	6.22351
	1006.02	32.9524	5.74042
	1007.92	27.5539	5.24918
	1009.82	22.2562	4.71765
	1011.72	18.154	4.26075
	1013.62	14.2865	3.77975
	1015.52	11.318	3.36422
	1017.42	8.93269	2.98876
	1019.32	7.0318	2.65175
	1021.22	5.33269	2.30926
	1023.12	3.62171	1.90308
	1025.02	2.19096	1.48019
	1026.92	0.988635	0.994301
	1028.82	0.309407	0.556244
	1030.72	-0.088817	0.298022
	1032.62	-0.295528	0.543625
	1034.52	-0.640301	0.800188
	1036.42	-0.918285	0.958272
	1038.32	-1.05537	1.02731
	1040.22	-1.02092	1.01041
	1042.12	-1.09302	1.04548
	1044.02	-1.17806	1.08538
	1045.92	-0.500402	0.707391
	1047.82	0.335193	0.578959
	1049.72	1.03353	1.01663
	1051.62	1.48005	1.21657
	1053.52	1.64881	1.28406
	1055.42	2.35946	1.53605
	1057.32	2.83749	1.68448
	1059.23	3.29462	1.81511
	1061.13	3.47285	1.86356
	1063.03	3.60281	1.89811
	1064.93	3.21511	1.79307
	1066.83	2.59633	1.61131
	1068.73	2.63432	1.62306
	1070.63	2.92453	1.71012
	1072.53	3.25619	1.80449
	1074.43	3.01035	1.73504
	1076.33	2.97177	1.72388
	1078.23	3.558	1.88627
	1080.13	4.08523	2.02119
	1082.03	4.5251	2.12723
	1083.93	4.90075	2.21376
	1085.83	5.04771	2.24671
	1087.73	5.56633	2.35931
	1089.63	5.63531	2.37388
	1091.53	6.09378	2.46856
	1093.43	5.96327	2.44198
	1095.33	6.15848	2.48163
	1097.23	6.29778	2.50954
	1099.13	6.56542	2.56231
	1101.03	6.46962	2.54355
	1102.93	6.14114	2.47813
	1104.83	5.90709	2.43045
	1106.73	5.62633	2.37199
	1108.63	5.73331	2.39443
	1110.53	5.80865	2.41011
	1112.43	6.08929	2.46765
	1114.33	6.7489	2.59786
	1116.23	7.19634	2.6826
	1118.14	7.76488	2.78655
	1120.04	8.47015	2.91035
	1121.94	9.29769	3.04921
	1123.84	9.76891	3.12553
	1125.74	10.2578	3.20278
	1127.64	10.6255	3.25968
	1129.54	11.086	3.32956
	1131.44	11.2506	3.35419
	1133.34	11.7614	3.42949
	1135.24	11.5304	3.39564
	1137.14	10.9772	3.31319
	1139.04	10.4436	3.23166
	1140.94	9.80106	3.13066
	1142.84	9.04175	3.00695
	1144.74	7.92163	2.81454
	1146.64	6.7267	2.59359
	1148.54	5.81391	2.41121
	1150.44	4.83291	2.19839
	1152.34	4.09208	2.02289
	1154.24	3.10417	1.76186
	1156.14	2.39989	1.54916
	1158.04	1.78037	1.3343
	1159.94	1.12768	1.06192
	1161.84	0.755403	0.869139
	1163.74	0.341994	0.584803
	1165.64	-0.0548441	0.234188
	1167.54	-0.326153	0.571098
	1169.44	-0.43713	0.661158
	1171.34	-0.717611	0.847119
	1173.24	-0.817936	0.904398
	1175.15	-0.82915	0.910577
	1177.05	-0.737632	0.858855
	1178.95	-0.677387	0.823035
	1180.85	-0.427361	0.653729
	1182.75	-0.0332968	0.182474
	1184.65	0.170779	0.413254
	1186.55	0.580421	0.761854
	1188.45	1.06021	1.02966
	1190.35	1.80918	1.34506
	1192.25	2.54299	1.59468
	1194.15	3.52477	1.87744
	1196.05	4.37016	2.09049
	1197.95	5.71169	2.38991
	1199.85	7.49063	2.7369
	1201.75	9.60754	3.0996
	1203.65	11.8071	3.43615
	1205.55	14.4302	3.79871
	1207.45	17.9689	4.23897
	1209.35	21.9657	4.68676
	1211.25	28.0492	5.29615
	1213.15	35.3454	5.9452
	1215.05	44.6813	6.68441
	1216.95	56.2043	7.49696
	1218.85	69.6715	8.34695
	1220.75	87.5283	9.35566
	1222.65	108.967	10.4387
	1224.55	134.258	11.587
	1226.45	165.788	12.8759
	1228.35	201.048	14.1791
	1230.25	243.244	15.5963
	1232.15	287.393	16.9527
	1234.06	332.572	18.2366
	1235.96	370.704	19.2537
	1237.86	400.531	20.0133
	1239.76	411.268	20.2797
	1241.66	401.913	20.0478
	1243.56	376.509	19.4038
	1245.46	336.767	18.3512
	1247.36	292.305	17.0969
	1249.26	247.545	15.7336
	1251.16	203.926	14.2803
	1253.06	166.617	12.908
	1254.96	134.753	11.6083
	1256.86	108.003	10.3924
	1258.76	87.2378	9.34012
	1260.66	70.7379	8.41058
	1262.56	58.9176	7.67578
	1264.46	50.4244	7.10101
	1266.36	44.7079	6.6864
	1268.26	40.2342	6.34305
	1270.16	36.739	6.06127
	1272.06	33.6942	5.80467
	1273.96	31.1867	5.58451
	1275.86	29.5559	5.43653
	1277.76	28.311	5.32081
	1279.66	27.2332	5.21855
	1281.56	26.0843	5.10728
	1283.46	25.3467	5.03455
	1285.36	24.9855	4.99855
	1287.26	24.8068	4.98065
	1289.16	24.3661	4.93621
	1291.06	23.5383	4.85163
	1292.97	22.8631	4.78153
	1294.87	22.3288	4.72534
	1296.77	21.4577	4.63225
	1298.67	20.2361	4.49845
	1300.57	18.7252	4.32727
	1302.47	17.394	4.17061
	1304.37	16.3097	4.03853
	1306.27	14.8572	3.8545
	1308.17	13.8183	3.7173
	1310.07	12.9836	3.60328
	1311.97	12.4067	3.52232
	1313.87	11.8133	3.43704
	1315.77	10.9187	3.30434
	1317.67	10.3807	3.22191
	1319.57	10.0826	3.17532
	1321.47	9.75484	3.12327
	1323.37	9.57077	3.09367
	1325.27	9.2961	3.04895
	1327.17	9.44074	3.07258
	1329.07	9.55982	3.0919
	1330.97	9.65241	3.10683
	1332.87	9.52088	3.08559
	1334.77	9.73944	3.12081
	1336.67	9.84152	3.13712
	1338.57	10.0996	3.17798
	1340.47	10.1749	3.18981
	1342.37	10.2408	3.20013
	1344.27	10.2826	3.20665
	1346.17	10.3355	3.21489
	1348.07	10.5404	3.24661
	1349.98	10.7385	3.27697
	1351.88	10.4328	3.22998
	1353.78	10.0612	3.17193
	1355.68	9.73571	3.12021
	1357.58	9.10827	3.01799
	1359.48	8.43906	2.90501
	1361.38	7.91589	2.81352
	1363.28	7.549	2.74755
	1365.18	7.02951	2.65132
	1367.08	6.41447	2.53268
	1368.98	5.62079	2.37082
	1370.88	4.90875	2.21557
	1372.78	4.49235	2.11952
	1374.68	4.00689	2.00172
	1376.58	3.64373	1.90886
	1378.48	2.98361	1.72731
	1380.38	2.30684	1.51883
	1382.28	1.88259	1.37208
	1384.18	1.79837	1.34103
	1386.08	1.42944	1.19559
	1387.98	0.739394	0.85988
	1389.88	0.199669	0.446843
	1391.78	-0.215403	0.464115
	1393.68	-0.588454	0.767107
	1395.58	-0.827163	0.909485
	1397.48	-0.947108	0.973195
	1399.38	-0.741437	0.861068
	1401.28	-0.591806	0.769289
	1403.18	-0.127838	0.357545
	1405.08	0.547041	0.739622
	1406.98	1.02031	1.0101
	1408.89	1.76926	1.33013
	1410.79	2.33281	1.52736
	1412.69	2.93002	1.71173
	1414.59	3.10759	1.76284
	1416.49	3.25966	1.80545
	1418.39	3.5063	1.87251
	1420.29	3.73589	1.93285
	1422.19	4.0177	2.00442
	1424.09	4.39853	2.09727
	1425.99	4.48411	2.11757
	1427.89	4.84453	2.20103
	1429.79	5.31314	2.30502
	1431.69	5.39081	2.32181
	1433.59	5.10925	2.26036
	1435.49	5.39811	2.32338
	1437.39	5.58452	2.36316
	1439.29	5.63093	2.37296
	1441.19	5.3456	2.31206
	1443.09	5.13655	2.2664
	1444.99	4.72283	2.17321
	1446.89	4.60571	2.14609
	1448.79	3.99345	1.99836
	1450.69	3.47833	1.86503
	1452.59	2.81415	1.67754
	1454.49	2.58142	1.60668
	1456.39	2.11564	1.45452
	1458.29	1.75561	1.32499
	1460.19	0.966637	0.983177
	1462.09	0.508567	0.713139
	1463.99	0.207062	0.455041
	1465.89	0.278153	0.527402
	1467.8	0.137144	0.370329
	1469.7	-0.330132	0.574571
	1471.6	-0.442772	0.665411
	1473.5	-0.624356	0.790162
	1475.4	-0.0962163	0.310187
	1477.3	0.232229	0.481902
	1479.2	0.0432618	0.207995
	1481.1	-0.19665	0.443452
	1483	-0.219101	0.468082
	1484.9	-0.283449	0.5324
	1486.8	-0.199519	0.446676
	1488.7	-0.142312	0.377243
	1490.6	0.430861	0.6564
	1492.5	0.172414	0.415228
	1494.4	0.0668172	0.25849
	1496.3	-0.297808	0.545717
	1498.2	-0.214551	0.463196
	1500.1	-0.394303	0.627936
	1502	-0.467941	0.684062
	1503.9	-0.166616	0.408186
	1505.8	0.0505524	0.224839
	1507.7	0.250405	0.500405
	1509.6	0.255737	0.505705
	1511.5	0.171332	0.413923
	1513.4	0.361806	0.601503
	1515.3	0.37632	0.613449
	1517.2	0.303918	0.551287
	1519.1	0.177069	0.420795
	1521	0.373286	0.610971
	1522.9	0.467708	0.683891
	1524.81	0.807197	0.898441
	1526.71	1.16999	1.08166
	1528.61	1.2919	1.13662
	1530.51	0.913954	0.956009
	1532.41	0.989825	0.994899
	1534.31	0.978531	0.989207
	1536.21	1.00267	1.00134
	1538.11	0.998524	0.999262
	1540.01	0.987348	0.993654
	1541.91	1.14401	1.06959
	1543.81	0.9301	0.964417
	1545.71	1.1742	1.08361
	1547.61	0.942307	0.970725
	1549.51	0.557078	0.746377
	1551.41	0.0316813	0.177992
	1553.31	0.21158	0.459978
	1555.21	0.291931	0.540306
	1557.11	0.194797	0.441358
	1559.01	-0.0532475	0.230754
	1560.91	-0.01925	0.138744
	1562.81	0.0393602	0.198394
	1564.71	-0.00279401	0.0528584
	1566.61	0.182524	0.427229
	1568.51	0.317702	0.563651
	1570.41	0.55997	0.748311
	1572.31	0.540066	0.734892
	1574.21	0.255423	0.505394
	1576.11	-0.054691	0.233861
	1578.01	0.185255	0.430413
	1579.91	0.273536	0.523006
	1581.81	0.351022	0.592471
	1583.72	0.372495	0.610324
	1585.62	0.541919	0.736151
	1587.52	0.655225	0.80946
	1589.42	0.791555	0.889694
	1591.32	0.920098	0.959217
	1593.22	0.953053	0.976244
	1595.12	1.27427	1.12884
	1597.02	1.65726	1.28735
	1598.92	2.12323	1.45713
	1600.82	2.38324	1.54378
	1602.72	2.73943	1.65512
	1604.62	3.20382	1.78992
	1606.52	3.44994	1.8574
	1608.42	4.05669	2.01412
	1610.32	4.82887	2.19747
	1612.22	5.8931	2.42757
	1614.12	7.04478	2.6542
	1616.02	8.36699	2.89257
	1617.92	9.41117	3.06776
	1619.82	10.6035	3.2563
	1621.72	12.0728	3.47459
	1623.62	13.7028	3.70173
	1625.52	15.5187	3.93938
	1627.42	17.7849	4.21721
	1629.32	19.5236	4.41856
	1631.22	21.6785	4.65602
	1633.12	23.8296	4.88156
	1635.02	25.8691	5.08617
	1636.92	27.4235	5.23675
	1638.82	29.336	5.41627
	1640.73	30.3947	5.51314
	1642.63	32.1722	5.67205
	1644.53	33.2444	5.7658
	1646.43	34.4636	5.87057
	1648.33	35.4857	5.95699
	1650.23	35.7851	5.98207
	1652.13	36.1392	6.01159
	1654.03	35.998	5.99984
	1655.93	35.8642	5.98867
	1657.83	35.206	5.93346
	1659.73	33.6976	5.80496
	1661.63	32.5738	5.70735
	1663.53	31.2093	5.58653
	1665.43	29.4936	5.4308
	1667.33	28.0187	5.29327
	1669.23	26.1209	5.11086
	1671.13	25.556	5.05529
	1673.03	24.857	4.98568
	1674.93	24.3315	4.9327
	1676.83	23.7233	4.87065
	1678.73	22.9452	4.79011
	1680.63	22.5572	4.74944
	1682.53	22.5216	4.74569
	1684.43	22.4789	4.74119
	1686.33	21.9324	4.68321
	1688.23	21.319	4.61724
	1690.13	20.8406	4.56515
	1692.03	20.4465	4.52178
	1693.93	19.3149	4.39487
	1695.83	18.0956	4.25389
	1697.73	16.5169	4.0641
	1699.64	15.241	3.90397
	1701.54	13.4561	3.66825
	1703.44	11.7826	3.43258
	1705.34	10.2305	3.19852
	1707.24	8.83245	2.97194
	1709.14	7.28152	2.69843
	1711.04	6.06592	2.46291
	1712.94	4.90436	2.21458
	1714.84	4.08735	2.02172
	1716.74	3.7493	1.93631
	1718.64	3.46383	1.86114
	1720.54	3.22904	1.79695
	1722.44	3.0624	1.74997
	1724.34	2.99057	1.72933
	1726.24	2.88313	1.69798
	1728.14	2.44291	1.56298
	1730.04	2.00954	1.41758
	1731.94	1.43182	1.19659
	1733.84	1.3085	1.14389
	1735.74	1.39061	1.17924
	1737.64	1.84235	1.35733
	1739.54	2.19143	1.48035
	1741.44	2.27307	1.50767
	1743.34	2.23831	1.4961
	1745.24	2.10658	1.45141
	1747.14	2.03839	1.42772
	1749.04	2.10195	1.44981
	1750.94	2.32546	1.52495
	1752.84	2.33195	1.52707
	1754.74	2.2644	1.50479
	1756.64	2.03441	1.42633
	1758.55	1.84357	1.35778
	1760.45	1.80337	1.3429
	1762.35	1.713	1.30882
	1764.25	2.05687	1.43418
	1766.15	2.28846	1.51277
	1768.05	2.54077	1.59398
	1769.95	2.70493	1.64467
	1771.85	2.86173	1.69167
	1773.75	2.85021	1.68826
	1775.65	2.95831	1.71997
	1777.55	3.65476	1.91174
	1779.45	4.09505	2.02362
	1781.35	4.66953	2.16091
	1783.25	4.81589	2.19451
	1785.15	5.24655	2.29054
	1787.05	5.91862	2.43282
	1788.95	6.53879	2.55711
	1790.85	7.19456	2.68227
	1792.75	7.96231	2.82176
	1794.65	9.23238	3.03848
	1796.55	10.5444	3.24722
	1798.45	11.7744	3.43138
	1800.35	12.9038	3.59219
	1802.25	14.2948	3.78084
	1804.15	16.0557	4.00695
	1806.05	18.1167	4.25637
	1807.95	20.2683	4.50203
	1809.85	22.3187	4.72427
	1811.75	24.2882	4.92831
	1813.65	27.0233	5.19839
	1815.56	30.0577	5.48249
	1817.46	33.6076	5.7972
	1819.36	37.4198	6.11717
	1821.26	41.1832	6.41741
	1823.16	45.022	6.70984
	1825.06	48.4753	6.96242
	1826.96	52.0753	7.21632
	1828.86	55.2498	7.43302
	1830.76	58.1126	7.62316
	1832.66	60.5251	7.77979
	1834.56	62.0021	7.87414
	1836.46	62.6817	7.91718
	1838.36	62.6733	7.91664
	1840.26	62.12	7.88163
	1842.16	60.3357	7.76761
	1844.06	57.3197	7.57098
	1845.96	54.0579	7.35241
	1847.86	50.5839	7.11224
	1849.76	47.2364	6.87287
	1851.66	43.1414	6.56821
	1853.56	38.9215	6.23871
	1855.46	34.842	5.90271
	1857.36	30.3629	5.51026
	1859.26	26.1908	5.11769
	1861.16	22.538	4.74742
	1863.06	19.5591	4.42256
	1864.96	16.8704	4.10736
	1866.86	14.3709	3.79089
	1868.76	12.0567	3.47228
	1870.66	10.2769	3.20576
	1872.56	8.74984	2.95801
	1874.47	7.50348	2.73925
	1876.37	6.46803	2.54323
	1878.27	5.36545	2.31635
	1880.17	4.34292	2.08397
	1882.07	3.6334	1.90615
	1883.97	3.25202	1.80334
	1885.87	2.77072	1.66455
	1887.77	2.31702	1.52218
	1889.67	1.86624	1.3661
	1891.57	1.22585	1.10718
	1893.47	0.604275	0.777351
	1895.37	0.514312	0.717155
	1897.27	0.44312	0.665673
	1899.17	0.229407	0.478965
	1901.07	-0.0230632	0.151866
	1902.97	-0.0875235	0.295844
	1904.87	-0.117276	0.342457
	1906.77	-0.14927	0.386354
	1908.67	0.140398	0.374697
	1910.57	0.188998	0.434739
	1912.47	0.107505	0.32788
	1914.37	-0.359139	0.599282
	1916.27	-0.535001	0.731437
	1918.17	-0.28614	0.534921
	1920.07	-0.10988	0.331481
	1921.97	-0.150676	0.38817
	1923.87	-0.257609	0.507552
	1925.77	-0.254206	0.504188
	1927.67	-0.110498	0.332412
	1929.57	0.115427	0.339745
	1931.48	0.337453	0.580907
	1933.38	0.403812	0.635462
	1935.28	0.436996	0.661057
	1937.18	0.708723	0.841857
	1939.08	1.18795	1.08993
	1940.98	1.59202	1.26175
	1942.88	1.58628	1.25948
	1944.78	1.70119	1.3043
	1946.68	1.83095	1.35313
	1948.58	2.29657	1.51544
	1950.48	2.46852	1.57115
	1952.38	2.56183	1.60057
	1954.28	2.50098	1.58145
	1956.18	2.22463	1.49152
	1958.08	1.96643	1.40229
	1959.98	1.94068	1.39308
	1961.88	1.85811	1.36313
	1963.78	1.43881	1.1995
	1965.68	1.0519	1.02562
	1967.58	0.772644	0.879002
	1969.48	0.503023	0.709241
	1971.38	0.311923	0.5585
	1973.28	-0.16481	0.405969
	1975.18	-0.131749	0.362973
	1977.08	-0.234953	0.48472
	1978.98	-0.186697	0.432084
	1980.88	-0.427355	0.653724
	1982.78	-0.561127	0.749084
	1984.68	-0.425767	0.652508
	1986.58	-0.124513	0.352865
	1988.48	0.0790251	0.281114
	1990.39	0.000373408	0.0193238
	1992.29	-0.311519	0.558139
	1994.19	-0.334383	0.578258
	1996.09	-0.128403	0.358334
	1997.99	0.294811	0.542965
	1999.89	0.481681	0.694032
	2001.79	0.441743	0.664638
	2003.69	0.333648	0.577623
	2005.59	0.18701	0.432446
	2007.49	0.42518	0.652058
	2009.39	0.525107	0.724643
	2011.29	0.631016	0.794365
	2013.19	0.524083	0.723936
	2015.09	0.284018	0.532934
	2016.99	0.417885	0.64644
	2018.89	0.590271	0.768291
	2020.79	0.804517	0.896949
	2022.69	0.694553	0.833398
	2024.59	0.90103	0.949226
	2026.49	1.05155	1.02545
	2028.39	1.05473	1.027
	2030.29	1.05134	1.02535
	2032.19	1.13834	1.06693
	2034.09	1.1557	1.07504
	2035.99	1.27508	1.1292
	2037.89	1.42629	1.19427
	2039.79	1.44907	1.20377
	2041.69	1.88501	1.37296
	2043.59	3.91965	1.97981
	2045.49	5.23797	2.28866
	2047.39	5.64764	2.37648
	2049.3	5.48461	2.34192
	2051.2	5.69756	2.38696
	2053.1	8.67013	2.94451
	2055	7.54932	2.7476
	2056.9	7.78313	2.78983
	2058.8	4.55317	2.13382
	2060.7	4.74825	2.17905
	2062.6	4.95637	2.22629
	2064.5	4.12415	2.0308
	2066.4	3.70694	1.92534
	2068.3	3.42217	1.84991
	2070.2	3.99967	1.99992
	2072.1	2.72178	1.64978
	2074	1.80174	1.34229
	2075.9	1.44155	1.20064
	2077.8	1.31786	1.14798
	2079.7	1.17673	1.08477
	2081.6	1.11888	1.05777
	2083.5	0.874902	0.935362
	2085.4	0.737589	0.85883
	2087.3	0.511798	0.715401
	2089.2	0.430093	0.655815
	2091.1	0.153049	0.391215
	2093	0.0305413	0.174761
	2094.9	0.216547	0.465346
	2096.8	0.335026	0.578814
	2098.7	0.439901	0.66325
	2100.6	0.450057	0.670863
	2102.5	0.378539	0.615255
	2104.4	0.396621	0.629779
	2106.31	0.371169	0.609237
	2108.21	0.18928	0.435063
	2110.11	-0.0791118	0.281268
	2112.01	-0.247105	0.497096
	2113.91	0.03318	0.182154
	2115.81	0.335781	0.579466
	2117.71	0.242122	0.492059
	2119.61	0.267659	0.517358
	2121.51	0.41243	0.642207
	2123.41	0.514506	0.717291
	2125.31	0.476961	0.690624
	2127.21	0.382365	0.618357
	2129.11	0.492181	0.701556
	2131.01	0.363374	0.602805
	2132.91	0.135752	0.368446
	2134.81	0.110787	0.332847
	2136.71	0.14122	0.375792
	2138.61	0.358126	0.598437
	2140.51	0.295686	0.543771
	2142.41	0.15381	0.392186
	2144.31	-0.00254488	0.0504468
	2146.21	-0.126831	0.356134
	2148.11	-0.169005	0.411102
	2150.01	-0.137293	0.370531
	2151.91	-0.183652	0.428546
	2153.81	-0.103117	0.321118
	2155.71	0.11557	0.339956
	2157.61	0.220245	0.469302
	2159.51	0.225223	0.474576
	2161.41	0.327692	0.572444
	2163.31	0.460842	0.678853
	2165.22	0.414649	0.643932
	2167.12	0.200948	0.448272
	2169.02	0.0462917	0.215155
	2170.92	0.279031	0.528234
	2172.82	0.328337	0.573007
	2174.72	0.259112	0.50903
	2176.62	0.393947	0.627652
	2178.52	0.358541	0.598783
	2180.42	0.14592	0.381995
	2182.32	-0.0812529	0.285049
	2184.22	-0.185622	0.430839
	2186.12	-0.189645	0.435483
	2188.02	-0.0502329	0.224127
	2189.92	0.0420337	0.205021
	2191.82	0.0913904	0.302309
	2193.72	0.146341	0.382545
	2195.62	0.21064	0.458955
	2197.52	0.0838878	0.289634
	2199.42	-0.212128	0.460574
	2201.32	-0.235439	0.485221
	2203.22	0.169537	0.411749
