Generated file C:/Users/didvk/Downloads/Dioptas_Win64_0.5.0/1_mask&dat&fxye_1position/18_ReMoB2_755psi_noRuby_S_P1_C1_D1w_115.fxye using DIOPTAS
# == pyFAI calibration ==
# Distance Sample to Detector: 0.21643023575112377 m
# PONI: 8.848e-02, 8.638e-02 m
# Rotations: 0.008179 -0.001145 -0.000000 rad
# 
# == Fit2d calibration ==
# Distance Sample-beamCenter: 216.438 mm
# Center: x=491.896, y=512.970 pix
# Tilt: 0.473 deg  TiltPlanRot: -172.032 deg
# 
# Detector Pilatus CdTe 1M	 PixelSize= 1.720e-04, 1.720e-04 m
#    Detector has a mask: True 
#    Detector has a dark current: False 
#    detector has a flat field: False 
# 
# Wavelength: 4.133e-11 m
# Mask applied: None
# Dark current applied: None
# Flat field applied: None
# Polarization factor: None
# Normalization factor: None
BANK	1	1006	1006 CONS	293.393	1.90033 0.4133 0.0 FXYE
	293.393	0.375831	0.61305
	295.294	0.274409	0.523841
	297.194	0.309748	0.55655
	299.094	0.895718	0.946424
	300.995	1.22769	1.10801
	302.895	0.938811	0.968922
	304.795	0.977225	0.988547
	306.696	1.10691	1.0521
	308.596	1.53108	1.23737
	310.496	1.46131	1.20884
	312.397	1.02809	1.01395
	314.297	1.02872	1.01426
	316.197	0.821392	0.906307
	318.098	0.759392	0.871431
	319.998	0.284802	0.533668
	321.898	0.415846	0.644861
	323.799	0.854423	0.92435
	325.699	1.49116	1.22113
	327.599	1.2514	1.11866
	329.5	1.38879	1.17847
	331.4	1.30305	1.14151
	333.3	1.02945	1.01462
	335.201	0.986397	0.993175
	337.101	1.09556	1.04669
	339.001	1.07593	1.03727
	340.902	1.07735	1.03795
	342.802	1.02778	1.01379
	344.702	0.72131	0.849299
	346.603	1.01231	1.00614
	348.503	1.60236	1.26584
	350.403	2.52747	1.5898
	352.304	4.00405	2.00101
	354.204	6.06371	2.46246
	356.104	8.75678	2.95919
	358.005	11.1423	3.33801
	359.905	12.5658	3.54483
	361.805	11.6203	3.40885
	363.706	9.35568	3.05871
	365.606	6.77535	2.60295
	367.506	4.6008	2.14495
	369.407	3.53222	1.87942
	371.307	2.93642	1.7136
	373.207	2.64487	1.62631
	375.108	1.95081	1.39672
	377.008	1.60227	1.26581
	378.908	1.20651	1.09841
	380.808	0.606446	0.778747
	382.709	0.592861	0.769975
	384.609	0.525368	0.724823
	386.509	0.0891319	0.29855
	388.41	0.193926	0.44037
	390.31	0.441772	0.664659
	392.21	0.770027	0.877512
	394.111	0.579827	0.761464
	396.011	0.726772	0.852509
	397.911	0.510461	0.714466
	399.812	0.538585	0.733884
	401.712	0.765333	0.874833
	403.612	1.02442	1.01214
	405.513	0.704313	0.839234
	407.413	0.0224288	0.149763
	409.313	-0.0845106	0.290707
	411.214	0.457944	0.676716
	413.114	0.590455	0.768411
	415.014	0.63759	0.798492
	416.915	0.280216	0.529355
	418.815	0.214092	0.462701
	420.715	0.0688036	0.262304
	422.616	0.533754	0.730584
	424.516	0.599397	0.774207
	426.416	0.678683	0.823822
	428.317	0.297959	0.545857
	430.217	0.00457048	0.0676053
	432.117	-0.0454765	0.213252
	434.018	0.124049	0.352206
	435.918	0.153548	0.391852
	437.818	0.347546	0.58953
	439.719	0.474246	0.688655
	441.619	0.322663	0.568035
	443.519	0.115218	0.339438
	445.42	-0.0359234	0.189535
	447.32	0.298606	0.546448
	449.22	0.373584	0.611215
	451.121	0.497805	0.705553
	453.021	0.792408	0.890173
	454.921	0.564699	0.751465
	456.822	0.470672	0.686055
	458.722	0.313494	0.559905
	460.622	0.0574485	0.239684
	462.523	0.0384964	0.196205
	464.423	0.108524	0.329431
	466.323	0.57346	0.757271
	468.224	0.284945	0.533803
	470.124	0.18534	0.430511
	472.024	0.352239	0.593497
	473.924	0.640868	0.800543
	475.825	0.242718	0.492664
	477.725	-0.0801193	0.283054
	479.625	0.0356522	0.188818
	481.526	0.00937472	0.0968231
	483.426	0.490194	0.700139
	485.326	0.211193	0.459557
	487.227	0.874726	0.935268
	489.127	0.529777	0.727858
	491.027	0.195244	0.441864
	492.928	0.0721007	0.268516
	494.828	0.296491	0.54451
	496.728	0.379418	0.615969
	498.629	0.0620108	0.24902
	500.529	-0.221741	0.470893
	502.429	0.181942	0.426547
	504.33	0.13973	0.373804
	506.23	0.267377	0.517085
	508.13	0.235693	0.485482
	510.031	0.0691904	0.263041
	511.931	0.626755	0.791678
	513.831	0.644646	0.802898
	515.732	0.638986	0.799366
	517.632	0.879899	0.938029
	519.532	0.904993	0.951311
	521.433	0.811813	0.901006
	523.333	0.651326	0.807048
	525.233	0.734006	0.856742
	527.134	0.832672	0.912509
	529.034	1.02956	1.01467
	530.934	0.461993	0.6797
	532.835	0.117767	0.343172
	534.735	0.153057	0.391225
	536.635	0.638607	0.799129
	538.536	1.03911	1.01937
	540.436	0.836559	0.914636
	542.336	0.811419	0.900788
	544.237	0.154249	0.392745
	546.137	0.24375	0.49371
	548.037	0.0490091	0.22138
	549.938	0.217368	0.466228
	551.838	0.00351704	0.0593046
	553.738	-0.143796	0.379204
	555.639	-0.251167	0.501166
	557.539	0.268871	0.518528
	559.439	0.519156	0.720525
	561.34	0.479812	0.692685
	563.24	-0.126931	0.356274
	565.14	0.334657	0.578496
	567.041	0.517537	0.7194
	568.941	0.599076	0.774
	570.841	0.20796	0.456026
	572.741	-0.0642188	0.253414
	574.642	0.0787523	0.280628
	576.542	-0.0544977	0.233448
	578.442	0.155032	0.393741
	580.343	0.131875	0.363145
	582.243	0.753708	0.868164
	584.143	0.912602	0.955302
	586.044	0.67148	0.819439
	587.944	0.0838376	0.289547
	589.844	0.115358	0.339644
	591.745	0.757728	0.870476
	593.645	1.4408	1.20033
	595.545	1.92559	1.38766
	597.446	2.00619	1.4164
	599.346	1.82332	1.3503
	601.246	1.74821	1.3222
	603.147	1.38194	1.17556
	605.047	0.955499	0.977496
	606.947	0.621483	0.788342
	608.848	0.271326	0.52089
	610.748	0.559052	0.747698
	612.648	0.336178	0.579808
	614.549	0.638903	0.799314
	616.449	0.650028	0.806243
	618.349	0.567665	0.753435
	620.25	0.311697	0.558299
	622.15	0.217658	0.466539
	624.05	0.211994	0.460429
	625.951	0.357525	0.597934
	627.851	0.38924	0.623891
	629.751	0.321327	0.566857
	631.652	0.0920957	0.303473
	633.552	0.1164	0.341175
	635.452	0.095843	0.309585
	637.353	-0.289891	0.538416
	639.253	-0.283353	0.532309
	641.153	-0.0522403	0.228561
	643.054	0.0817757	0.285964
	644.954	0.42534	0.652181
	646.854	0.814075	0.902261
	648.755	0.948473	0.973896
	650.655	1.32033	1.14906
	652.555	2.11524	1.45439
	654.456	3.40142	1.84429
	656.356	4.13663	2.03387
	658.256	5.02741	2.24219
	660.157	5.32969	2.30861
	662.057	5.32686	2.308
	663.957	4.30143	2.07399
	665.857	2.91922	1.70857
	667.758	1.97782	1.40635
	669.658	1.79512	1.33982
	671.558	1.8377	1.35562
	673.459	1.52918	1.2366
	675.359	0.49138	0.700985
	677.259	0.321043	0.566606
	679.16	0.332957	0.577025
	681.06	0.282858	0.531844
	682.96	0.255355	0.505327
	684.861	0.463648	0.680917
	686.761	1.42245	1.19267
	688.661	2.20148	1.48374
	690.562	2.81183	1.67685
	692.462	3.83119	1.95734
	694.362	5.1558	2.27064
	696.263	6.84705	2.61669
	698.163	8.55462	2.92483
	700.063	9.6713	3.10987
	701.964	10.3951	3.22415
	703.864	10.7836	3.28383
	705.764	11.7761	3.43163
	707.665	13.3086	3.64809
	709.565	16.072	4.009
	711.465	19.9173	4.46288
	713.366	27.1665	5.21215
	715.266	34.8347	5.9021
	717.166	46.5954	6.82608
	719.067	54.5911	7.38858
	720.967	60.7319	7.79307
	722.867	61.2642	7.82714
	724.768	58.0425	7.61856
	726.668	49.2922	7.02084
	728.568	41.7267	6.45962
	730.469	34.0272	5.83328
	732.369	27.5627	5.25002
	734.269	22.5076	4.74422
	736.17	17.8801	4.22849
	738.07	14.4362	3.7995
	739.97	11.5066	3.39213
	741.871	9.58207	3.09549
	743.771	8.1075	2.84737
	745.671	6.59021	2.56714
	747.572	5.74152	2.39615
	749.472	5.14173	2.26754
	751.372	4.91893	2.21787
	753.273	3.92004	1.97991
	755.173	3.36386	1.83408
	757.073	3.24945	1.80262
	758.973	2.90723	1.70506
	760.874	2.33949	1.52954
	762.774	1.80628	1.34398
	764.674	1.54765	1.24404
	766.575	1.80546	1.34367
	768.475	2.04325	1.42942
	770.375	1.80832	1.34474
	772.276	1.288	1.1349
	774.176	0.894518	0.94579
	776.076	0.948274	0.973794
	777.977	1.09451	1.04619
	779.877	0.827975	0.909931
	781.777	0.483382	0.695257
	783.678	0.238869	0.488742
	785.578	0.533247	0.730238
	787.478	0.590889	0.768693
	789.379	0.479133	0.692194
	791.279	0.425007	0.651926
	793.179	0.782305	0.88448
	795.08	1.24302	1.11491
	796.98	1.10549	1.05143
	798.88	0.439329	0.662819
	800.781	0.182129	0.426766
	802.681	0.34643	0.588583
	804.581	0.105622	0.324996
	806.482	-0.216885	0.46571
	808.382	-0.224183	0.47348
	810.282	0.170638	0.413083
	812.183	0.569956	0.754954
	814.083	0.498773	0.706238
	815.983	0.155807	0.394723
	817.884	0.210358	0.458648
	819.784	0.255232	0.505205
	821.684	0.782786	0.884752
	823.585	1.05225	1.02579
	825.485	1.12255	1.0595
	827.385	1.12836	1.06224
	829.286	1.01017	1.00507
	831.186	0.825143	0.908374
	833.086	0.471544	0.686691
	834.987	0.248538	0.498535
	836.887	0.104704	0.32358
	838.787	0.444499	0.666708
	840.688	0.727769	0.853094
	842.588	0.883463	0.939927
	844.488	0.35007	0.591667
	846.389	0.210371	0.458662
	848.289	-0.0946811	0.307703
	850.189	0.279362	0.528547
	852.089	0.862086	0.928486
	853.99	1.09643	1.04711
	855.89	0.884641	0.940554
	857.79	0.511829	0.715422
	859.691	0.541967	0.736184
	861.591	0.228413	0.477925
	863.491	0.0329418	0.181499
	865.392	-0.534346	0.73099
	867.292	-0.251086	0.501085
	869.192	-0.066633	0.258134
	871.093	-0.0496156	0.222746
	872.993	-0.0864212	0.293975
	874.893	0.074723	0.273355
	876.794	0.066993	0.25883
	878.694	-0.282989	0.531967
	880.594	-0.426909	0.653383
	882.495	-0.173433	0.416453
	884.395	-0.513707	0.716733
	886.295	-0.679077	0.824061
	888.196	-0.122216	0.349594
	890.096	0.556655	0.746093
	891.996	0.684004	0.827045
	893.897	0.304275	0.551611
	895.797	0.0476002	0.218175
	897.697	0.172857	0.415761
	899.598	0.196851	0.443679
	901.498	0.508833	0.713326
	903.398	0.839189	0.916073
	905.299	1.29578	1.13832
	907.199	1.55381	1.24652
	909.099	1.97901	1.40677
	911	2.27797	1.5093
	912.9	2.78531	1.66892
	914.8	3.73858	1.93354
	916.701	4.71902	2.17233
	918.601	5.51011	2.34736
	920.501	6.46735	2.5431
	922.402	7.87968	2.80708
	924.302	9.88324	3.14376
	926.202	12.057	3.47231
	928.103	14.4653	3.80333
	930.003	17.4193	4.17364
	931.903	21.7235	4.66085
	933.804	27.2486	5.22002
	935.704	34.4742	5.87148
	937.604	43.8706	6.62349
	939.505	55.9453	7.47966
	941.405	72.5045	8.51495
	943.305	93.485	9.66877
	945.206	121.625	11.0284
	947.106	154.366	12.4244
	949.006	190.575	13.8049
	950.906	226.036	15.0345
	952.807	256.092	16.0029
	954.707	277.791	16.6671
	956.607	289.195	17.0057
	958.508	288.321	16.98
	960.408	277.016	16.6438
	962.308	259.467	16.108
	964.209	238.805	15.4533
	966.109	218.041	14.7662
	968.009	198.308	14.0822
	969.91	181.245	13.4627
	971.81	165.857	12.8786
	973.71	151.685	12.316
	975.611	139.709	11.8198
	977.511	129.475	11.3787
	979.411	120.491	10.9768
	981.312	112.467	10.605
	983.212	106.433	10.3166
	985.112	101.088	10.0543
	987.013	97.7134	9.88501
	988.913	95.6456	9.77985
	990.813	93.5741	9.67337
	992.714	91.4994	9.56553
	994.614	88.8952	9.42843
	996.514	85.8221	9.26402
	998.415	82.2371	9.06847
	1000.31	77.6709	8.81311
	1002.22	72.4272	8.51042
	1004.12	66.9769	8.18394
	1006.02	61.6322	7.85062
	1007.92	56.1795	7.4953
	1009.82	50.384	7.09817
	1011.72	44.882	6.6994
	1013.62	39.5594	6.28962
	1015.52	34.7134	5.89181
	1017.42	29.9596	5.47354
	1019.32	25.6662	5.06619
	1021.22	21.5591	4.64317
	1023.12	17.7763	4.2162
	1025.02	14.6562	3.82835
	1026.92	11.9529	3.4573
	1028.82	9.59939	3.09829
	1030.72	7.66713	2.76896
	1032.62	5.94139	2.4375
	1034.52	4.58293	2.14078
	1036.42	3.43841	1.8543
	1038.32	2.47902	1.57449
	1040.22	2.12449	1.45756
	1042.12	1.3218	1.1497
	1044.02	0.731391	0.855214
	1045.92	-0.1842	0.429185
	1047.82	-0.661737	0.813472
	1049.72	-0.988954	0.994462
	1051.62	-0.990574	0.995276
	1053.52	-1.08075	1.03959
	1055.42	-1.21503	1.10228
	1057.32	-0.913413	0.955726
	1059.23	-0.555383	0.74524
	1061.13	-0.00936353	0.0967653
	1063.03	0.618799	0.786638
	1064.93	1.32215	1.14985
	1066.83	1.96054	1.40019
	1068.73	2.62478	1.62012
	1070.63	2.82309	1.68021
	1072.53	3.34256	1.82827
	1074.43	3.58143	1.89247
	1076.33	4.14587	2.03614
	1078.23	4.05918	2.01474
	1080.13	4.07514	2.0187
	1082.03	3.98253	1.99563
	1083.93	3.84859	1.96178
	1085.83	3.53739	1.88079
	1087.73	3.07405	1.7533
	1089.63	3.05468	1.74776
	1091.53	2.87137	1.69451
	1093.43	2.27841	1.50944
	1095.33	1.76039	1.3268
	1097.23	1.45272	1.20529
	1099.13	1.4641	1.21
	1101.03	1.5243	1.23463
	1102.93	1.65558	1.28669
	1104.83	1.84601	1.35868
	1106.73	1.90727	1.38104
	1108.63	2.03916	1.42799
	1110.53	2.26881	1.50626
	1112.43	2.63469	1.62317
	1114.33	3.087	1.75699
	1116.23	3.18484	1.78461
	1118.14	3.0355	1.74227
	1120.04	2.86891	1.69379
	1121.94	3.28911	1.81359
	1123.84	3.48552	1.86695
	1125.74	3.43595	1.85363
	1127.64	3.40437	1.84509
	1129.54	3.69037	1.92103
	1131.44	4.14656	2.03631
	1133.34	4.34183	2.0837
	1135.24	4.5636	2.13626
	1137.14	4.79496	2.18974
	1139.04	5.1981	2.27994
	1140.94	5.69795	2.38704
	1142.84	5.86271	2.4213
	1144.74	5.46144	2.33697
	1146.64	5.2825	2.29837
	1148.54	5.24594	2.2904
	1150.44	5.23282	2.28753
	1152.34	5.00973	2.23824
	1154.24	4.28736	2.07059
	1156.14	3.50654	1.87258
	1158.04	3.11493	1.76492
	1159.94	2.99767	1.73138
	1161.84	2.54092	1.59403
	1163.74	1.62108	1.27322
	1165.64	1.10634	1.05183
	1167.54	0.446913	0.668516
	1169.44	0.285988	0.534778
	1171.34	-0.153428	0.391699
	1173.24	-0.204114	0.45179
	1175.15	-0.429059	0.655026
	1177.05	-0.483122	0.69507
	1178.95	-0.648798	0.80548
	1180.85	-0.847308	0.920494
	1182.75	-0.616079	0.784907
	1184.65	-0.503377	0.70949
	1186.55	-0.518186	0.719852
	1188.45	-0.589345	0.767688
	1190.35	-0.340539	0.583557
	1192.25	-0.0335237	0.183095
	1194.15	0.183915	0.428853
	1196.05	0.732033	0.85559
	1197.95	1.20683	1.09856
	1199.85	1.76645	1.32908
	1201.75	2.0665	1.43753
	1203.65	2.73435	1.65359
	1205.55	3.5988	1.89705
	1207.45	4.63064	2.15189
	1209.35	6.26859	2.50371
	1211.25	7.96974	2.82307
	1213.15	9.93872	3.15257
	1215.05	11.6611	3.41483
	1216.95	13.9828	3.73936
	1218.85	16.4765	4.05913
	1220.75	20.6202	4.54095
	1222.65	25.2507	5.02501
	1224.55	31.1948	5.58523
	1226.45	38.3607	6.1936
	1228.35	47.3887	6.88395
	1230.25	59.6399	7.72269
	1232.15	75.2461	8.67445
	1234.06	94.2399	9.70772
	1235.96	118.785	10.8989
	1237.86	148.575	12.1892
	1239.76	183.972	13.5636
	1241.66	227.39	15.0794
	1243.56	273.938	16.5511
	1245.46	327.182	18.0882
	1247.36	378.211	19.4477
	1249.26	424.683	20.6078
	1251.16	456.149	21.3577
	1253.06	473.486	21.7597
	1254.96	472.325	21.733
	1256.86	453.139	21.2871
	1258.76	422.458	20.5538
	1260.66	382.079	19.5468
	1262.56	337.146	18.3615
	1264.46	290.166	17.0343
	1266.36	246.668	15.7057
	1268.26	205.286	14.3278
	1270.16	168.486	12.9802
	1272.06	136.437	11.6806
	1273.96	109.4	10.4595
	1275.86	87.4879	9.3535
	1277.76	70.9525	8.42333
	1279.66	58.5232	7.65005
	1281.56	49.4265	7.0304
	1283.46	42.7708	6.53994
	1285.36	37.3865	6.11445
	1287.26	33.2507	5.76635
	1289.16	30.0899	5.48543
	1291.06	27.5292	5.24683
	1292.97	25.5575	5.05544
	1294.87	23.6806	4.86627
	1296.77	21.917	4.68156
	1298.67	20.5072	4.52849
	1300.57	19.0923	4.36948
	1302.47	17.7257	4.21019
	1304.37	16.5014	4.0622
	1306.27	15.2922	3.91053
	1308.17	14.3443	3.78738
	1310.07	13.6125	3.68951
	1311.97	12.5654	3.54477
	1313.87	11.7919	3.43393
	1315.77	10.8798	3.29846
	1317.67	10.185	3.1914
	1319.57	9.58213	3.0955
	1321.47	8.50333	2.91605
	1323.37	7.47928	2.73483
	1325.27	6.20112	2.4902
	1327.17	5.63053	2.37287
	1329.07	5.3248	2.30755
	1330.97	5.56029	2.35803
	1332.87	5.98255	2.44592
	1334.77	5.80257	2.40885
	1336.67	4.92237	2.21864
	1338.57	4.30945	2.07592
	1340.47	4.31544	2.07736
	1342.37	4.64003	2.15407
	1344.27	4.93406	2.22127
	1346.17	5.4374	2.33182
	1348.07	5.7366	2.39512
	1349.98	5.93575	2.43634
	1351.88	5.95104	2.43948
	1353.78	6.12887	2.47566
	1355.68	6.38851	2.52755
	1357.58	6.5615	2.56154
	1359.48	6.34228	2.51839
	1361.38	6.10714	2.47126
	1363.28	6.17624	2.4852
	1365.18	6.23962	2.49792
	1367.08	6.11328	2.47251
	1368.98	5.51039	2.34742
	1370.88	4.87751	2.20851
	1372.78	4.71627	2.1717
	1374.68	4.171	2.0423
	1376.58	4.0369	2.0092
	1378.48	3.66512	1.91445
	1380.38	3.59209	1.89528
	1382.28	3.01814	1.73728
	1384.18	2.58991	1.60932
	1386.08	1.93529	1.39115
	1387.98	1.69278	1.30107
	1389.88	1.25484	1.1202
	1391.78	0.72366	0.850682
	1393.68	0.328362	0.573029
	1395.58	0.129182	0.359419
	1397.48	0.371227	0.609284
	1399.38	-0.0229689	0.151555
	1401.28	0.0947458	0.307808
	1403.18	-0.103427	0.321601
	1405.08	-0.268815	0.518474
	1406.98	-0.705538	0.839963
	1408.89	-1.01746	1.00869
	1410.79	-0.637151	0.798218
	1412.69	-0.236777	0.486598
	1414.59	0.211813	0.460231
	1416.49	0.559882	0.748252
	1418.39	0.857788	0.926168
	1420.29	1.18663	1.08933
	1422.19	1.1063	1.05181
	1424.09	1.17905	1.08584
	1425.99	1.68862	1.29947
	1427.89	2.56028	1.60009
	1429.79	3.10024	1.76075
	1431.69	3.47471	1.86406
	1433.59	4.1926	2.04758
	1435.49	4.65457	2.15745
	1437.39	5.40013	2.32382
	1439.29	5.96211	2.44174
	1441.19	6.24791	2.49958
	1443.09	6.13875	2.47765
	1444.99	6.33737	2.51741
	1446.89	6.46111	2.54187
	1448.79	6.71546	2.59142
	1450.69	6.60295	2.56962
	1452.59	6.46192	2.54203
	1454.49	6.09126	2.46805
	1456.39	5.61822	2.37028
	1458.29	5.21133	2.28283
	1460.19	5.13327	2.26567
	1462.09	4.867	2.20613
	1463.99	4.48518	2.11782
	1465.89	3.96132	1.99031
	1467.8	3.58857	1.89435
	1469.7	2.91598	1.70762
	1471.6	2.11505	1.45432
	1473.5	1.57489	1.25495
	1475.4	1.26325	1.12394
	1477.3	0.906652	0.952183
	1479.2	0.296431	0.544455
	1481.1	-0.217342	0.466199
	1483	0.0684111	0.261555
	1484.9	0.000235701	0.0153525
	1486.8	0.240891	0.490806
	1488.7	0.0122993	0.110902
	1490.6	0.160854	0.401066
	1492.5	0.254269	0.504251
	1494.4	0.130131	0.360736
	1496.3	-0.231404	0.481044
	1498.2	-0.395699	0.629046
	1500.1	-0.370752	0.608894
	1502	-0.430555	0.656167
	1503.9	-0.164499	0.405585
	1505.8	0.140654	0.375039
	1507.7	0.500299	0.707318
	1509.6	0.4557	0.675055
	1511.5	0.478519	0.691751
	1513.4	0.216805	0.465624
	1515.3	0.184847	0.429938
	1517.2	0.311988	0.558559
	1519.1	0.449754	0.670637
	1521	0.653154	0.80818
	1522.9	0.759357	0.871411
	1524.81	0.689676	0.830467
	1526.71	0.326287	0.571215
	1528.61	-0.210797	0.459127
	1530.51	-0.0307618	0.17539
	1532.41	0.588633	0.767224
	1534.31	0.938602	0.968815
	1536.21	0.841619	0.917398
	1538.11	0.865652	0.930404
	1540.01	1.0262	1.01302
	1541.91	1.09703	1.04739
	1543.81	1.3207	1.14922
	1545.71	1.32152	1.14958
	1547.61	1.31265	1.14571
	1549.51	0.983666	0.991799
	1551.41	0.79143	0.889623
	1553.31	0.587008	0.766164
	1555.21	0.662196	0.813754
	1557.11	0.820839	0.906002
	1559.01	0.855818	0.925104
	1560.91	1.06909	1.03397
	1562.81	1.16036	1.0772
	1564.71	1.16882	1.08112
	1566.61	0.836133	0.914403
	1568.51	0.743414	0.862215
	1570.41	0.582007	0.762894
	1572.31	0.803362	0.896305
	1574.21	0.922292	0.96036
	1576.11	0.918576	0.958424
	1578.01	0.923792	0.961141
	1579.91	0.606805	0.778977
	1581.81	0.5925	0.76974
	1583.72	0.531117	0.728778
	1585.62	0.550744	0.742121
	1587.52	0.339532	0.582694
	1589.42	0.192217	0.438425
	1591.32	-0.217242	0.466092
	1593.22	-0.170528	0.41295
	1595.12	0.126598	0.355806
	1597.02	0.308718	0.555624
	1598.92	0.479615	0.692542
	1600.82	0.362997	0.602492
	1602.72	0.385204	0.620648
	1604.62	0.451691	0.67208
	1606.52	0.470302	0.685785
	1608.42	0.584863	0.764763
	1610.32	0.601579	0.775615
	1612.22	1.03554	1.01761
	1614.12	1.63292	1.27786
	1616.02	2.21204	1.48729
	1617.92	2.54721	1.596
	1619.82	2.75997	1.66132
	1621.72	3.37837	1.83803
	1623.62	3.9561	1.98899
	1625.52	4.86905	2.20659
	1627.42	5.94076	2.43737
	1629.32	6.82464	2.6124
	1631.22	7.67059	2.76958
	1633.12	8.7467	2.95748
	1635.02	9.88915	3.1447
	1636.92	11.7118	3.42225
	1638.82	13.5561	3.68186
	1640.73	15.6831	3.96019
	1642.63	18.1457	4.25978
	1644.53	20.5991	4.53863
	1646.43	23.2593	4.82279
	1648.33	26.1029	5.1091
	1650.23	28.3567	5.3251
	1652.13	30.6532	5.53653
	1654.03	33.344	5.77443
	1655.93	35.2635	5.93831
	1657.83	37.0663	6.08821
	1659.73	37.8676	6.15367
	1661.63	38.1919	6.17996
	1663.53	37.8086	6.14887
	1665.43	37.4321	6.11818
	1667.33	37.1872	6.09813
	1669.23	36.4405	6.0366
	1671.13	35.7605	5.98001
	1673.03	35.0321	5.9188
	1674.93	33.5154	5.78925
	1676.83	32.2486	5.67879
	1678.73	30.7955	5.54937
	1680.63	29.2948	5.41247
	1682.53	27.9759	5.28923
	1684.43	26.6019	5.1577
	1686.33	25.7645	5.07587
	1688.23	24.7807	4.97803
	1690.13	23.9932	4.89829
	1692.03	23.2491	4.82173
	1693.93	22.5533	4.74903
	1695.83	21.4108	4.62718
	1697.73	20.1655	4.49061
	1699.64	18.7338	4.32826
	1701.54	17.5852	4.19348
	1703.44	17.0067	4.12391
	1705.34	16.7413	4.09161
	1707.24	15.8949	3.98684
	1709.14	14.8827	3.85781
	1711.04	13.8819	3.72584
	1712.94	13.2887	3.64537
	1714.84	12.9191	3.59432
	1716.74	12.5828	3.54722
	1718.64	11.9635	3.45882
	1720.54	10.8307	3.291
	1722.44	9.90615	3.1474
	1724.34	9.00527	3.00088
	1726.24	8.47297	2.91084
	1728.14	8.01107	2.83038
	1730.04	7.1328	2.67073
	1731.94	5.81056	2.41051
	1733.84	4.61878	2.14914
	1735.74	4.0252	2.00629
	1737.64	3.79793	1.94883
	1739.54	3.56124	1.88712
	1741.44	2.9076	1.70517
	1743.34	2.21814	1.48934
	1745.24	2.12693	1.4584
	1747.14	2.14218	1.46362
	1749.04	1.9657	1.40204
	1750.94	1.46594	1.21076
	1752.84	1.52147	1.23348
	1754.74	1.81038	1.3455
	1756.64	2.19613	1.48194
	1758.55	2.20793	1.48591
	1760.45	2.14943	1.46609
	1762.35	1.94602	1.395
	1764.25	1.7277	1.31442
	1766.15	1.77167	1.33104
	1768.05	1.89252	1.37569
	1769.95	2.07343	1.43994
	1771.85	2.09406	1.44709
	1773.75	2.3214	1.52361
	1775.65	2.08742	1.44479
	1777.55	2.225	1.49164
	1779.45	2.00224	1.415
	1781.35	2.17951	1.47632
	1783.25	2.26188	1.50396
	1785.15	2.25279	1.50093
	1787.05	2.41759	1.55486
	1788.95	2.48211	1.57547
	1790.85	2.63829	1.62428
	1792.75	2.91905	1.70852
	1794.65	3.09262	1.75858
	1796.55	3.21098	1.79192
	1798.45	3.466	1.86172
	1800.35	3.72045	1.92885
	1802.25	4.19099	2.04719
	1804.15	4.44544	2.10842
	1806.05	4.8935	2.21213
	1807.95	5.29746	2.30162
	1809.85	5.91265	2.43159
	1811.75	6.91299	2.62926
	1813.65	7.55197	2.74809
	1815.56	8.40372	2.89892
	1817.46	9.40238	3.06633
	1819.36	10.5812	3.25287
	1821.26	11.5346	3.39626
	1823.16	12.8845	3.5895
	1825.06	14.4413	3.80017
	1826.96	16.2851	4.03549
	1828.86	18.2737	4.27477
	1830.76	20.2594	4.50105
	1832.66	22.2341	4.71531
	1834.56	24.707	4.97061
	1836.46	27.6812	5.26129
	1838.36	30.5155	5.52408
	1840.26	33.3429	5.77433
	1842.16	36.1427	6.01188
	1844.06	38.8679	6.23441
	1845.96	41.1293	6.41321
	1847.86	43.3124	6.58122
	1849.76	45.3667	6.73548
	1851.66	47.1765	6.86851
	1853.56	48.2069	6.94312
	1855.46	48.5409	6.96713
	1857.36	48.5022	6.96435
	1859.26	48.1954	6.94229
	1861.16	47.4901	6.89131
	1863.06	46.0099	6.78306
	1864.96	43.9667	6.63074
	1866.86	41.2198	6.42027
	1868.76	38.3394	6.19188
	1870.66	35.4266	5.95202
	1872.56	32.1651	5.67143
	1874.47	28.7451	5.36145
	1876.37	25.3655	5.03642
	1878.27	22.1559	4.707
	1880.17	18.5411	4.30594
	1882.07	15.3319	3.91559
	1883.97	12.6625	3.55844
	1885.87	10.2032	3.19424
	1887.77	8.18065	2.86018
	1889.67	6.36665	2.52322
	1891.57	5.08173	2.25427
	1893.47	4.31137	2.07638
	1895.37	3.78935	1.94663
	1897.27	3.39904	1.84365
	1899.17	3.11074	1.76373
	1901.07	2.90857	1.70545
	1902.97	2.74598	1.6571
	1904.87	2.549	1.59656
	1906.77	2.31808	1.52252
	1908.67	1.95012	1.39647
	1910.57	1.32741	1.15213
	1912.47	1.02023	1.01006
	1914.37	0.567277	0.753178
	1916.27	0.178299	0.422255
	1918.17	-0.21922	0.468209
	1920.07	-0.0799063	0.282677
	1921.97	0.143419	0.378708
	1923.87	0.127415	0.356952
	1925.77	0.128597	0.358604
	1927.67	0.154712	0.393334
	1929.57	-0.0331894	0.18218
	1931.48	-0.130243	0.360891
	1933.38	0.0100135	0.100067
	1935.28	0.151631	0.389398
	1937.18	0.0414626	0.203624
	1939.08	-0.0578864	0.240596
	1940.98	-0.0621645	0.249328
	1942.88	0.104657	0.323508
	1944.78	0.209353	0.457551
	1946.68	0.334277	0.578167
	1948.58	0.246209	0.496195
	1950.48	0.0912875	0.302138
	1952.38	-0.136152	0.368988
	1954.28	0.0387443	0.196836
	1956.18	0.199936	0.447143
	1958.08	0.467969	0.684083
	1959.98	0.502047	0.708552
	1961.88	0.623773	0.789793
	1963.78	0.641142	0.800713
	1965.68	0.400822	0.633105
	1967.58	0.224543	0.47386
	1969.48	0.166809	0.408423
	1971.38	0.138561	0.372238
	1973.28	0.162545	0.403169
	1975.18	0.377911	0.614744
	1977.08	0.707774	0.841293
	1978.98	0.788346	0.887889
	1980.88	0.557119	0.746404
	1982.78	0.614353	0.783807
	1984.68	0.479214	0.692253
	1986.58	0.443211	0.665741
	1988.48	0.440516	0.663714
	1990.39	0.291558	0.539961
	1992.29	-0.0469147	0.216598
	1994.19	-0.293343	0.541611
	1996.09	-0.174596	0.417847
	1997.99	-0.0754275	0.274641
	1999.89	0.0507414	0.225258
	2001.79	0.0815043	0.28549
	2003.69	0.093842	0.306336
	2005.59	0.0570515	0.238855
	2007.49	0.0204724	0.143082
	2009.39	-0.00236036	0.0485836
	2011.29	-0.0704084	0.265346
	2013.19	-0.0813924	0.285294
	2015.09	-0.173806	0.4169
	2016.99	0.0218946	0.147968
	2018.89	0.127005	0.356378
	2020.79	0.349026	0.590784
	2022.69	0.448497	0.669699
	2024.59	0.481583	0.693962
	2026.49	0.499701	0.706896
	2028.39	0.357242	0.597697
	2030.29	0.21654	0.465338
	2032.19	0.092677	0.304429
	2034.09	0.213296	0.46184
	2035.99	0.260208	0.510106
	2037.89	0.300591	0.548262
	2039.79	0.138927	0.372729
	2041.69	-0.0229379	0.151453
	2043.59	0.106874	0.326915
	2045.49	0.324826	0.569935
	2047.39	0.360001	0.600001
	2049.3	0.255876	0.505842
	2051.2	0.264448	0.514245
	2053.1	0.137837	0.371264
	2055	0.312076	0.558638
	2056.9	0.335274	0.579029
	2058.8	0.617479	0.785798
	2060.7	0.812177	0.901209
	2062.6	1.03005	1.01492
	2064.5	1.20081	1.09581
	2066.4	1.28622	1.13412
	2068.3	1.31921	1.14857
	2070.2	1.39314	1.18031
	2072.1	1.4194	1.19139
	2074	1.64375	1.28209
	2075.9	1.70522	1.30584
	2077.8	1.72252	1.31245
	2079.7	1.59942	1.26468
	2081.6	1.60337	1.26624
	2083.5	1.72562	1.31363
	2085.4	1.69574	1.30221
	2087.3	1.71757	1.31056
	2089.2	1.66819	1.29158
	2091.1	1.48441	1.21836
	2093	1.39582	1.18145
	2094.9	1.28994	1.13576
	2096.8	1.02753	1.01367
	2098.7	0.879589	0.937864
	2100.6	0.872298	0.933969
	2102.5	0.765497	0.874927
	2104.4	0.725829	0.851956
	2106.31	0.624569	0.790297
	2108.21	0.517649	0.719478
	2110.11	0.645751	0.803587
	2112.01	0.532361	0.729631
	2113.91	0.445794	0.667678
	2115.81	0.297552	0.545483
	2117.71	0.166297	0.407795
	2119.61	0.111165	0.333414
	2121.51	-0.0577321	0.240275
	2123.41	0.0726751	0.269583
	2125.31	0.411421	0.641421
	2127.21	0.738361	0.859279
	2129.11	0.583653	0.763972
	2131.01	0.579033	0.760942
	2132.91	0.460367	0.678503
	2134.81	0.370138	0.608389
	2136.71	0.193632	0.440037
	2138.61	0.284456	0.533344
	2140.51	0.383441	0.619226
	2142.41	0.36661	0.605484
	2144.31	0.115823	0.340327
	2146.21	-0.0235269	0.153385
	2148.11	-0.24534	0.495318
	2150.01	-0.259517	0.509428
	2151.91	-0.112481	0.335383
	2153.81	0.233314	0.483026
	2155.71	0.193534	0.439926
	2157.61	0.136619	0.369621
	2159.51	0.133972	0.366022
	2161.41	0.12294	0.350628
	2163.31	0.117017	0.342077
	2165.22	0.0240439	0.155061
	2167.12	0.156785	0.395961
	2169.02	0.225101	0.474448
	2170.92	0.189853	0.435722
	2172.82	0.0841343	0.290059
	2174.72	0.179172	0.423287
	2176.62	0.185623	0.43084
	2178.52	0.108167	0.328887
	2180.42	0.094305	0.307091
	2182.32	0.00459225	0.0677661
	2184.22	-0.130103	0.360698
	2186.12	-0.179649	0.42385
	2188.02	-0.227809	0.477293
	2189.92	-0.0690299	0.262735
	2191.82	0.0283549	0.168389
	2193.72	0.270198	0.519806
	2195.62	0.291793	0.540179
	2197.52	0.161981	0.402469
	2199.42	-0.217913	0.466812
	2201.32	-0.393646	0.627412
	2203.22	0.238929	0.488803
