Generated file C:/Users/didvk/Downloads/Dioptas_Win64_0.5.0/1_mask&dat&fxye_1position/19_ReMoB2_785psi_noRuby_S_P1_C1_D1w_121.fxye using DIOPTAS
# == pyFAI calibration ==
# Distance Sample to Detector: 0.21643023575112377 m
# PONI: 8.848e-02, 8.638e-02 m
# Rotations: 0.008179 -0.001145 -0.000000 rad
# 
# == Fit2d calibration ==
# Distance Sample-beamCenter: 216.438 mm
# Center: x=491.896, y=512.970 pix
# Tilt: 0.473 deg  TiltPlanRot: -172.032 deg
# 
# Detector Pilatus CdTe 1M	 PixelSize= 1.720e-04, 1.720e-04 m
#    Detector has a mask: True 
#    Detector has a dark current: False 
#    detector has a flat field: False 
# 
# Wavelength: 4.133e-11 m
# Mask applied: None
# Dark current applied: None
# Flat field applied: None
# Polarization factor: None
# Normalization factor: None
BANK	1	1006	1006 CONS	293.393	1.90033 0.4133 0.0 FXYE
	293.393	0.464643	0.681647
	295.294	0.732043	0.855595
	297.194	0.488033	0.698594
	299.094	0.464817	0.681775
	300.995	0.462643	0.680179
	302.895	0.609723	0.780847
	304.795	0.566555	0.752699
	306.696	0.528111	0.726712
	308.596	0.753121	0.867825
	310.496	0.8955	0.946309
	312.397	1.1633	1.07856
	314.297	0.993545	0.996767
	316.197	0.539086	0.734225
	318.098	0.164855	0.406023
	319.998	-0.0685702	0.261859
	321.898	0.0489933	0.221344
	323.799	0.334279	0.578169
	325.699	0.809531	0.89974
	327.599	0.787023	0.887143
	329.5	0.489629	0.699735
	331.4	0.459202	0.677645
	333.3	1.15579	1.07508
	335.201	1.13404	1.06491
	337.101	1.33278	1.15446
	339.001	1.58532	1.25909
	340.902	1.85359	1.36147
	342.802	1.33186	1.15406
	344.702	1.13544	1.06557
	346.603	1.36561	1.16859
	348.503	2.23652	1.4955
	350.403	2.68013	1.63711
	352.304	3.90759	1.97676
	354.204	5.87612	2.42407
	356.104	9.12529	3.02081
	358.005	12.5567	3.54354
	359.905	15.4251	3.92748
	361.805	16.0439	4.00549
	363.706	14.0282	3.74542
	365.606	10.1665	3.18849
	367.506	7.20287	2.68382
	369.407	4.83661	2.19923
	371.307	3.45041	1.85753
	373.207	2.83912	1.68497
	375.108	2.17145	1.47358
	377.008	1.81451	1.34704
	378.908	1.49169	1.22135
	380.808	1.63867	1.28011
	382.709	1.16772	1.08061
	384.609	0.772204	0.878751
	386.509	0.206295	0.454197
	388.41	-0.0584403	0.241744
	390.31	0.108887	0.32998
	392.21	0.171989	0.414716
	394.111	0.260525	0.510416
	396.011	0.52089	0.721727
	397.911	0.638897	0.79931
	399.812	0.639727	0.799829
	401.712	0.586642	0.765926
	403.612	0.485255	0.696602
	405.513	0.536212	0.732265
	407.413	0.581815	0.762768
	409.313	0.728052	0.85326
	411.214	0.605954	0.778431
	413.114	0.81529	0.902934
	415.014	1.38636	1.17744
	416.915	1.76272	1.32767
	418.815	1.63089	1.27706
	420.715	1.50146	1.22534
	422.616	1.23702	1.11221
	424.516	1.01392	1.00693
	426.416	1.17339	1.08323
	428.317	0.895715	0.946422
	430.217	1.12392	1.06015
	432.117	0.424194	0.651302
	434.018	0.617612	0.785883
	435.918	0.263419	0.513243
	437.818	0.654685	0.809126
	439.719	0.706359	0.840452
	441.619	0.978843	0.989365
	443.519	0.677789	0.82328
	445.42	0.00715997	0.0846166
	447.32	-0.345974	0.588196
	449.22	0.0603224	0.245606
	451.121	0.424483	0.651524
	453.021	0.622361	0.788898
	454.921	0.597818	0.773187
	456.822	0.463841	0.681059
	458.722	0.493509	0.702502
	460.622	0.599995	0.774593
	462.523	0.614094	0.783642
	464.423	0.578641	0.760684
	466.323	0.363188	0.602651
	468.224	0.738866	0.859573
	470.124	0.566526	0.752679
	472.024	0.072186	0.268675
	473.924	0.115683	0.340122
	475.825	0.282074	0.531106
	477.725	0.395938	0.629236
	479.625	0.674778	0.821449
	481.526	0.135864	0.368597
	483.426	0.442248	0.665017
	485.326	0.378307	0.615066
	487.227	0.761688	0.872747
	489.127	0.8266	0.909176
	491.027	0.817999	0.904433
	492.928	0.277282	0.526576
	494.828	0.502129	0.70861
	496.728	0.413874	0.64333
	498.629	0.510364	0.714398
	500.529	0.447204	0.668733
	502.429	0.351179	0.592603
	504.33	0.286179	0.534957
	506.23	0.0420135	0.204972
	508.13	0.151942	0.389797
	510.031	0.668762	0.817779
	511.931	1.3484	1.16121
	513.831	1.27405	1.12874
	515.732	0.957842	0.978694
	517.632	0.455603	0.674984
	519.532	-0.00626048	0.0791232
	521.433	0.430893	0.656424
	523.333	0.994382	0.997187
	525.233	1.04178	1.02068
	527.134	1.08864	1.04338
	529.034	0.658944	0.811753
	530.934	0.275882	0.525245
	532.835	0.184747	0.429822
	534.735	0.240271	0.490175
	536.635	0.760578	0.872111
	538.536	0.711671	0.843606
	540.436	0.357085	0.597566
	542.336	-0.0289405	0.170119
	544.237	-0.117955	0.343446
	546.137	0.306529	0.55365
	548.037	0.683249	0.826589
	549.938	1.01008	1.00503
	551.838	0.904236	0.950913
	553.738	1.36224	1.16715
	555.639	1.26521	1.12481
	557.539	1.47573	1.2148
	559.439	1.08893	1.04352
	561.34	0.621943	0.788634
	563.24	0.414304	0.643664
	565.14	0.407063	0.638015
	567.041	0.234273	0.484017
	568.941	-0.0765557	0.276687
	570.841	0.295542	0.543638
	572.741	0.821465	0.906347
	574.642	1.05892	1.02904
	576.542	0.915661	0.956902
	578.442	0.548584	0.740665
	580.343	-0.0901526	0.300254
	582.243	-0.253203	0.503193
	584.143	-0.0351176	0.187397
	586.044	0.628677	0.792892
	587.944	0.831831	0.912047
	589.844	1.05326	1.02628
	591.745	0.690598	0.831022
	593.645	1.25124	1.11859
	595.545	1.79989	1.3416
	597.446	2.03824	1.42767
	599.346	1.77061	1.33064
	601.246	1.77305	1.33156
	603.147	1.7323	1.31617
	605.047	1.47312	1.21372
	606.947	0.896498	0.946836
	608.848	0.454854	0.674429
	610.748	0.407776	0.638573
	612.648	0.407593	0.63843
	614.549	0.585125	0.764934
	616.449	0.503494	0.709573
	618.349	0.58875	0.7673
	620.25	0.646667	0.804156
	622.15	0.611212	0.7818
	624.05	0.382917	0.618803
	625.951	0.285994	0.534784
	627.851	0.0570419	0.238834
	629.751	-0.0389888	0.197456
	631.652	-0.101464	0.318534
	633.552	-0.125836	0.354734
	635.452	0.289915	0.538438
	637.353	0.162907	0.403617
	639.253	0.238656	0.488525
	641.153	0.379143	0.615746
	643.054	0.926225	0.962406
	644.954	1.51515	1.23092
	646.854	1.19048	1.09109
	648.755	0.804199	0.896772
	650.655	0.921944	0.960179
	652.555	1.17023	1.08177
	654.456	2.12396	1.45738
	656.356	3.32781	1.82423
	658.256	4.5289	2.12812
	660.157	5.07943	2.25376
	662.057	5.16109	2.2718
	663.957	4.86418	2.20549
	665.857	4.2224	2.05485
	667.758	2.94288	1.71548
	669.658	1.85493	1.36196
	671.558	1.47949	1.21634
	673.459	1.20148	1.09612
	675.359	0.972752	0.986282
	677.259	0.741186	0.860921
	679.16	0.0919391	0.303215
	681.06	-0.0774159	0.278237
	682.96	0.0192049	0.138582
	684.861	0.304935	0.55221
	686.761	1.24369	1.11521
	688.661	1.74987	1.32283
	690.562	2.19641	1.48203
	692.462	2.91504	1.70735
	694.362	3.99536	1.99884
	696.263	5.20226	2.28085
	698.163	6.35751	2.52141
	700.063	7.96318	2.82191
	701.964	9.49668	3.08167
	703.864	10.6063	3.25673
	705.764	11.1379	3.33735
	707.665	11.9645	3.45898
	709.565	13.8855	3.72633
	711.465	17.0907	4.13408
	713.366	22.8926	4.78462
	715.266	29.7251	5.45207
	717.166	40.295	6.34784
	719.067	49.1575	7.01124
	720.967	57.928	7.61105
	722.867	62.3946	7.89902
	724.768	62.0992	7.8803
	726.668	57.0563	7.55356
	728.568	50.7475	7.12373
	730.469	43.3593	6.58478
	732.369	36.0838	6.00698
	734.269	30.1835	5.49395
	736.17	23.7812	4.8766
	738.07	19.4568	4.41098
	739.97	15.9571	3.99464
	741.871	13.4773	3.67114
	743.771	11.9726	3.46014
	745.671	10.1935	3.19272
	747.572	8.89991	2.98327
	749.472	7.43783	2.72724
	751.372	7.02958	2.65134
	753.273	6.59097	2.56729
	755.173	6.2223	2.49445
	757.073	5.45352	2.33528
	758.973	4.26856	2.06605
	760.874	3.35067	1.83048
	762.774	2.46871	1.57121
	764.674	2.45752	1.56765
	766.575	2.6679	1.63337
	768.475	3.05547	1.74799
	770.375	2.63112	1.62207
	772.276	2.14235	1.46368
	774.176	1.7896	1.33776
	776.076	1.53552	1.23916
	777.977	1.08897	1.04354
	779.877	0.856577	0.925515
	781.777	0.825325	0.908474
	783.678	0.988458	0.994212
	785.578	0.941678	0.970401
	787.478	0.745952	0.863685
	789.379	0.246257	0.496243
	791.279	0.210619	0.458933
	793.179	0.331028	0.57535
	795.08	0.312584	0.559092
	796.98	0.12295	0.350642
	798.88	0.0932893	0.305433
	800.781	0.0189927	0.137814
	802.681	0.326672	0.571552
	804.581	0.166629	0.408202
	806.482	0.192906	0.43921
	808.382	0.139622	0.37366
	810.282	0.735073	0.857364
	812.183	0.561213	0.749142
	814.083	1.08674	1.04247
	815.983	0.853068	0.923617
	817.884	1.02832	1.01406
	819.784	0.778035	0.882063
	821.684	0.811081	0.900601
	823.585	0.451009	0.671572
	825.485	0.49779	0.705542
	827.385	0.528798	0.727185
	829.286	0.660638	0.812796
	831.186	0.378887	0.615538
	833.086	0.262997	0.512832
	834.987	0.0992341	0.315014
	836.887	-0.251854	0.50185
	838.787	-0.3266	0.571489
	840.688	-0.279808	0.528968
	842.588	0.299423	0.547196
	844.488	0.506348	0.711581
	846.389	0.469821	0.685435
	848.289	0.36003	0.600025
	850.189	-0.0574424	0.239671
	852.089	0.216458	0.465251
	853.99	0.37692	0.613938
	855.89	0.63301	0.795619
	857.79	0.103584	0.321845
	859.691	-0.0671327	0.2591
	861.591	0.0226787	0.150595
	863.491	0.0513069	0.22651
	865.392	0.335631	0.579337
	867.292	0.210044	0.458305
	869.192	0.537618	0.733224
	871.093	0.207945	0.45601
	872.993	0.170807	0.413288
	874.893	0.172248	0.415028
	876.794	0.224503	0.473817
	878.694	-0.264584	0.514377
	880.594	-0.353306	0.594395
	882.495	-0.264659	0.51445
	884.395	0.185757	0.430995
	886.295	-0.210948	0.459291
	888.196	-0.185588	0.430799
	890.096	-0.124791	0.353257
	891.996	-0.00451849	0.0672197
	893.897	-0.292621	0.540945
	895.797	-0.320663	0.566271
	897.697	-0.129271	0.359543
	899.598	0.318727	0.564559
	901.498	0.219623	0.468639
	903.398	0.793113	0.890569
	905.299	1.10206	1.04979
	907.199	1.42959	1.19565
	909.099	1.46955	1.21225
	911	1.74155	1.31968
	912.9	2.22638	1.49211
	914.8	2.61657	1.61758
	916.701	3.38545	1.83996
	918.601	4.32833	2.08046
	920.501	5.06196	2.24988
	922.402	6.10725	2.47128
	924.302	7.38437	2.71742
	926.202	9.036	3.00599
	928.103	10.7322	3.27601
	930.003	13.2596	3.64138
	931.903	16.7401	4.09147
	933.804	20.9524	4.57738
	935.704	25.8196	5.0813
	937.604	32.1153	5.66704
	939.505	40.2218	6.34207
	941.405	52.2263	7.22677
	943.305	67.0527	8.18857
	945.206	87.6947	9.36455
	947.106	113.674	10.6618
	949.006	144.894	12.0372
	950.906	181.854	13.4853
	952.807	217.422	14.7452
	954.707	252.763	15.8985
	956.607	277.181	16.6488
	958.508	289.671	17.0197
	960.408	288.501	16.9853
	962.308	278.467	16.6873
	964.209	262.01	16.1867
	966.109	242.478	15.5717
	968.009	221.015	14.8666
	969.91	201.91	14.2095
	971.81	183.679	13.5528
	973.71	167.261	12.9329
	975.611	153.538	12.391
	977.511	141.01	11.8748
	979.411	130.138	11.4078
	981.312	121.804	11.0365
	983.212	115.551	10.7495
	985.112	110.81	10.5266
	987.013	107.839	10.3845
	988.913	106.553	10.3224
	990.813	105.668	10.2795
	992.714	104.93	10.2435
	994.614	104.118	10.2038
	996.514	102.102	10.1046
	998.415	99.0839	9.95409
	1000.31	94.2068	9.70602
	1002.22	88.5805	9.41172
	1004.12	82.1217	9.0621
	1006.02	75.9963	8.71759
	1007.92	69.7399	8.35104
	1009.82	62.9365	7.93325
	1011.72	56.1993	7.49662
	1013.62	49.4285	7.03054
	1015.52	43.1995	6.57264
	1017.42	37.7137	6.14115
	1019.32	32.829	5.72966
	1021.22	28.275	5.31743
	1023.12	23.5696	4.85486
	1025.02	19.4294	4.40788
	1026.92	15.704	3.96283
	1028.82	12.96	3.59999
	1030.72	10.9167	3.30404
	1032.62	8.47119	2.91053
	1034.52	6.45425	2.54052
	1036.42	5.05807	2.24902
	1038.32	4.05998	2.01494
	1040.22	3.1558	1.77646
	1042.12	1.93858	1.39233
	1044.02	0.973754	0.98679
	1045.92	0.291331	0.539751
	1047.82	-0.00505908	0.0711272
	1049.72	-0.341301	0.58421
	1051.62	-0.794064	0.891103
	1053.52	-1.20089	1.09585
	1055.42	-1.09804	1.04788
	1057.32	-0.901168	0.949299
	1059.23	-0.897174	0.947193
	1061.13	-1.07961	1.03904
	1063.03	-0.606076	0.778509
	1064.93	0.176671	0.420322
	1066.83	1.24773	1.11702
	1068.73	1.84906	1.3598
	1070.63	2.21729	1.48906
	1072.53	2.23683	1.4956
	1074.43	2.70982	1.64615
	1076.33	2.88941	1.69983
	1078.23	3.24577	1.8016
	1080.13	3.06374	1.75035
	1082.03	3.36258	1.83373
	1083.93	3.5306	1.87899
	1085.83	3.74616	1.9355
	1087.73	4.43595	2.10617
	1089.63	4.29438	2.07229
	1091.53	4.10868	2.02699
	1093.43	3.63171	1.9057
	1095.33	3.06846	1.7517
	1097.23	2.27379	1.50791
	1099.13	1.78554	1.33624
	1101.03	1.57	1.253
	1102.93	1.92844	1.38868
	1104.83	1.62475	1.27466
	1106.73	1.46386	1.2099
	1108.63	1.6983	1.30319
	1110.53	1.68817	1.2993
	1112.43	1.80979	1.34529
	1114.33	1.68649	1.29865
	1116.23	1.68391	1.29766
	1118.14	1.60044	1.26509
	1120.04	2.01963	1.42114
	1121.94	2.7045	1.64454
	1123.84	3.03373	1.74176
	1125.74	3.24146	1.80041
	1127.64	3.36134	1.8334
	1129.54	3.76354	1.93998
	1131.44	4.31485	2.07722
	1133.34	4.69293	2.16632
	1135.24	5.19942	2.28022
	1137.14	5.91847	2.43279
	1139.04	6.20838	2.49166
	1140.94	6.55154	2.5596
	1142.84	6.83939	2.61522
	1144.74	7.14287	2.67261
	1146.64	7.19561	2.68246
	1148.54	7.10735	2.66596
	1150.44	7.04655	2.65453
	1152.34	6.32271	2.5145
	1154.24	5.58102	2.36242
	1156.14	5.1355	2.26616
	1158.04	4.95521	2.22603
	1159.94	4.55293	2.13376
	1161.84	3.62107	1.90291
	1163.74	3.1627	1.7784
	1165.64	2.71764	1.64853
	1167.54	2.37065	1.53969
	1169.44	1.55623	1.24749
	1171.34	0.709653	0.842409
	1173.24	0.147678	0.384289
	1175.15	-0.374586	0.612035
	1177.05	-0.373389	0.611055
	1178.95	-0.0689063	0.2625
	1180.85	-0.00752872	0.0867682
	1182.75	-0.0819196	0.286216
	1184.65	-0.492534	0.701808
	1186.55	-0.655865	0.809855
	1188.45	-0.75953	0.87151
	1190.35	-0.618789	0.786631
	1192.25	-0.541751	0.736038
	1194.15	-0.246505	0.496493
	1196.05	0.147212	0.383682
	1197.95	0.462679	0.680205
	1199.85	0.772217	0.878759
	1201.75	1.2596	1.12232
	1203.65	1.59203	1.26176
	1205.55	1.97946	1.40693
	1207.45	2.82641	1.68119
	1209.35	3.96984	1.99244
	1211.25	5.28087	2.29801
	1213.15	6.39955	2.52973
	1215.05	8.08008	2.84255
	1216.95	10.2569	3.20264
	1218.85	12.5073	3.53657
	1220.75	15.519	3.93941
	1222.65	18.7613	4.33143
	1224.55	22.6665	4.76093
	1226.45	28.1136	5.30223
	1228.35	34.7074	5.8913
	1230.25	44.0177	6.63458
	1232.15	55.7049	7.46357
	1234.06	70.5861	8.40155
	1235.96	90.0174	9.48775
	1237.86	113.827	10.669
	1239.76	142.37	11.9319
	1241.66	180.078	13.4193
	1243.56	221.421	14.8802
	1245.46	271.387	16.4738
	1247.36	323.844	17.9957
	1249.26	375.795	19.3854
	1251.16	422.026	20.5433
	1253.06	457.196	21.3821
	1254.96	476.162	21.8211
	1256.86	475.802	21.8129
	1258.76	461.021	21.4714
	1260.66	431.962	20.7837
	1262.56	394.373	19.8588
	1264.46	350.54	18.7227
	1266.36	306.426	17.505
	1268.26	262.009	16.1867
	1270.16	220.757	14.8579
	1272.06	182.89	13.5237
	1273.96	148.936	12.2039
	1275.86	120.31	10.9686
	1277.76	97.0757	9.8527
	1279.66	79.1239	8.89516
	1281.56	65.0232	8.06369
	1283.46	53.8317	7.33701
	1285.36	45.421	6.73951
	1287.26	39.0727	6.25082
	1289.16	34.7392	5.894
	1291.06	30.6776	5.53874
	1292.97	27.3914	5.23368
	1294.87	24.5748	4.9573
	1296.77	22.4966	4.74306
	1298.67	20.9768	4.58005
	1300.57	19.6427	4.43201
	1302.47	18.117	4.2564
	1304.37	17.0737	4.13203
	1306.27	15.9843	3.99804
	1308.17	14.9223	3.86294
	1310.07	14.0178	3.74404
	1311.97	13.3151	3.64899
	1313.87	12.8118	3.57936
	1315.77	12.2337	3.49767
	1317.67	11.4012	3.37656
	1319.57	10.2182	3.19659
	1321.47	9.08007	3.01332
	1323.37	8.43968	2.90511
	1325.27	7.97063	2.82323
	1327.17	7.31685	2.70497
	1329.07	6.96623	2.63936
	1330.97	6.74206	2.59655
	1332.87	6.6437	2.57754
	1334.77	6.74909	2.5979
	1336.67	6.85956	2.61908
	1338.57	6.48591	2.54675
	1340.47	6.06614	2.46295
	1342.37	5.97003	2.44336
	1344.27	6.40221	2.53026
	1346.17	6.92308	2.63118
	1348.07	7.4721	2.73351
	1349.98	7.99546	2.82762
	1351.88	8.13748	2.85263
	1353.78	8.06754	2.84034
	1355.68	8.32451	2.88522
	1357.58	8.65779	2.94241
	1359.48	8.72319	2.9535
	1361.38	8.8543	2.97562
	1363.28	8.98477	2.99746
	1365.18	8.52062	2.91901
	1367.08	8.43888	2.90498
	1368.98	8.17913	2.85992
	1370.88	8.36822	2.89279
	1372.78	7.87532	2.8063
	1374.68	7.18209	2.67994
	1376.58	6.57076	2.56335
	1378.48	6.06962	2.46366
	1380.38	5.55552	2.35702
	1382.28	4.98744	2.23326
	1384.18	4.56932	2.1376
	1386.08	3.84523	1.96092
	1387.98	3.31498	1.82071
	1389.88	2.85365	1.68928
	1391.78	2.34321	1.53075
	1393.68	1.68012	1.2962
	1395.58	0.904638	0.951125
	1397.48	0.448697	0.669849
	1399.38	0.356222	0.596843
	1401.28	0.179944	0.424198
	1403.18	-0.173137	0.416097
	1405.08	-0.457051	0.676056
	1406.98	-0.755276	0.869066
	1408.89	-0.906002	0.951841
	1410.79	-0.735476	0.857599
	1412.69	-0.483106	0.695058
	1414.59	-0.29728	0.545234
	1416.49	-0.354581	0.595467
	1418.39	-0.222013	0.471183
	1420.29	-0.137049	0.370201
	1422.19	-0.100384	0.316835
	1424.09	0.245429	0.495408
	1425.99	0.522495	0.722838
	1427.89	0.768141	0.876437
	1429.79	1.27889	1.13088
	1431.69	2.07338	1.43992
	1433.59	3.03409	1.74186
	1435.49	3.83083	1.95725
	1437.39	4.19461	2.04808
	1439.29	4.49957	2.12122
	1441.19	5.28526	2.29897
	1443.09	5.98205	2.44582
	1444.99	6.85933	2.61903
	1446.89	7.18226	2.67997
	1448.79	7.60741	2.75815
	1450.69	7.81912	2.79627
	1452.59	7.78625	2.79038
	1454.49	7.88957	2.80884
	1456.39	7.94848	2.8193
	1458.29	7.85897	2.80339
	1460.19	7.39929	2.72016
	1462.09	6.67596	2.58379
	1463.99	5.64763	2.37647
	1465.89	4.89981	2.21355
	1467.8	3.96085	1.99019
	1469.7	2.83785	1.68459
	1471.6	2.13261	1.46034
	1473.5	1.48397	1.21818
	1475.4	1.50615	1.22725
	1477.3	1.0486	1.02401
	1479.2	1.03511	1.0174
	1481.1	0.775161	0.880433
	1483	0.582398	0.76315
	1484.9	0.315994	0.562133
	1486.8	0.180245	0.424553
	1488.7	-0.00461913	0.0679642
	1490.6	-0.0783448	0.279901
	1492.5	-0.0198857	0.141017
	1494.4	0.0805973	0.283897
	1496.3	0.145211	0.381066
	1498.2	-0.0577895	0.240394
	1500.1	-0.336396	0.579996
	1502	-0.465162	0.682028
	1503.9	-0.339912	0.583019
	1505.8	-0.0523513	0.228804
	1507.7	-0.129219	0.359471
	1509.6	-0.0880679	0.296762
	1511.5	-0.357413	0.59784
	1513.4	-0.28181	0.530858
	1515.3	-0.0270036	0.164328
	1517.2	0.0282293	0.168016
	1519.1	-0.175125	0.418479
	1521	-0.129471	0.35982
	1522.9	-0.0765378	0.276655
	1524.81	0.25758	0.507524
	1526.71	0.34419	0.586677
	1528.61	0.45103	0.671587
	1530.51	0.159638	0.399547
	1532.41	-0.0662703	0.25743
	1534.31	0.124221	0.35245
	1536.21	0.486532	0.697518
	1538.11	0.556307	0.74586
	1540.01	0.343891	0.586422
	1541.91	0.48449	0.696053
	1543.81	0.659683	0.812208
	1545.71	0.78065	0.883544
	1547.61	0.948453	0.973886
	1549.51	1.18728	1.08963
	1551.41	1.21685	1.10311
	1553.31	1.22031	1.10468
	1555.21	1.28306	1.13272
	1557.11	1.68344	1.29748
	1559.01	1.38848	1.17834
	1560.91	1.22607	1.10728
	1562.81	1.05673	1.02798
	1564.71	1.32568	1.15138
	1566.61	1.21002	1.10001
	1568.51	1.07382	1.03625
	1570.41	0.664459	0.815144
	1572.31	0.785384	0.886219
	1574.21	0.96952	0.984642
	1576.11	0.913056	0.955539
	1578.01	0.830095	0.911095
	1579.91	0.259556	0.509467
	1581.81	-0.102583	0.320286
	1583.72	-0.214145	0.462758
	1585.62	0.188125	0.433733
	1587.52	0.464395	0.681465
	1589.42	0.409512	0.639931
	1591.32	0.583186	0.763666
	1593.22	0.544451	0.737869
	1595.12	0.782774	0.884745
	1597.02	0.81961	0.905323
	1598.92	0.757571	0.870386
	1600.82	0.548668	0.740721
	1602.72	0.495353	0.703813
	1604.62	0.439524	0.662966
	1606.52	0.255312	0.505284
	1608.42	0.394274	0.627912
	1610.32	0.726779	0.852513
	1612.22	0.986269	0.993111
	1614.12	1.03078	1.01527
	1616.02	1.04398	1.02175
	1617.92	1.03113	1.01545
	1619.82	1.29872	1.13962
	1621.72	1.71414	1.30925
	1623.62	2.19941	1.48304
	1625.52	3.16791	1.77986
	1627.42	3.74386	1.93491
	1629.32	4.24824	2.06112
	1631.22	4.62365	2.15027
	1633.12	5.25077	2.29146
	1635.02	5.99322	2.44811
	1636.92	7.00144	2.64602
	1638.82	8.29185	2.87956
	1640.73	9.73485	3.12007
	1642.63	10.9701	3.31211
	1644.53	12.3472	3.51386
	1646.43	14.0611	3.74981
	1648.33	16.5109	4.06336
	1650.23	18.5936	4.31203
	1652.13	20.8974	4.57136
	1654.03	22.6773	4.76207
	1655.93	23.9109	4.88988
	1657.83	25.3875	5.0386
	1659.73	26.8632	5.18297
	1661.63	28.1921	5.30963
	1663.53	29.1199	5.39629
	1665.43	29.652	5.44536
	1667.33	30.2415	5.49923
	1669.23	30.4351	5.5168
	1671.13	30.5585	5.52797
	1673.03	30.1547	5.49133
	1674.93	29.8912	5.46729
	1676.83	29.5043	5.43178
	1678.73	29.1715	5.40106
	1680.63	28.3467	5.32416
	1682.53	27.8447	5.27681
	1684.43	27.0612	5.20204
	1686.33	26.6366	5.16106
	1688.23	26.0941	5.10824
	1690.13	25.4011	5.03995
	1692.03	24.4687	4.94659
	1693.93	23.3784	4.83512
	1695.83	22.2853	4.72073
	1697.73	21.2243	4.60698
	1699.64	20.3013	4.50569
	1701.54	19.6078	4.42807
	1703.44	19.4464	4.40981
	1705.34	18.8131	4.33741
	1707.24	18.1433	4.25949
	1709.14	17.0904	4.13406
	1711.04	16.5102	4.06327
	1712.94	16.0845	4.01055
	1714.84	16.0212	4.00265
	1716.74	15.4797	3.93443
	1718.64	14.86	3.85487
	1720.54	14.2725	3.77789
	1722.44	13.8566	3.72245
	1724.34	13.2765	3.6437
	1726.24	12.3934	3.52042
	1728.14	11.1873	3.34474
	1730.04	9.87626	3.14265
	1731.94	8.65712	2.9423
	1733.84	7.7978	2.79245
	1735.74	7.26303	2.695
	1737.64	6.56525	2.56228
	1739.54	5.51477	2.34835
	1741.44	4.54617	2.13218
	1743.34	3.91844	1.97951
	1745.24	3.58918	1.89451
	1747.14	3.41668	1.84843
	1749.04	3.17401	1.78158
	1750.94	2.81473	1.67771
	1752.84	2.31656	1.52203
	1754.74	1.97174	1.40419
	1756.64	1.90206	1.37915
	1758.55	1.78327	1.33539
	1760.45	1.7791	1.33383
	1762.35	1.56133	1.24953
	1764.25	1.84867	1.35966
	1766.15	2.15928	1.46945
	1768.05	2.22723	1.49239
	1769.95	1.86027	1.36392
	1771.85	1.42114	1.19212
	1773.75	1.4522	1.20507
	1775.65	1.61368	1.27031
	1777.55	1.7993	1.34138
	1779.45	1.80942	1.34515
	1781.35	2.06176	1.43588
	1783.25	2.3527	1.53385
	1785.15	2.09309	1.44675
	1787.05	1.86652	1.36621
	1788.95	1.7922	1.33873
	1790.85	2.07982	1.44216
	1792.75	2.5197	1.58736
	1794.65	2.92069	1.709
	1796.55	2.91498	1.70733
	1798.45	3.06313	1.75018
	1800.35	3.08441	1.75625
	1802.25	3.61162	1.90043
	1804.15	4.09937	2.02469
	1806.05	4.86392	2.20543
	1807.95	4.7363	2.1763
	1809.85	4.88596	2.21042
	1811.75	5.19139	2.27846
	1813.65	5.99539	2.44855
	1815.56	7.02801	2.65104
	1817.46	7.89404	2.80963
	1819.36	8.80154	2.96674
	1821.26	9.53047	3.08715
	1823.16	10.6382	3.26162
	1825.06	11.6006	3.40597
	1826.96	12.9659	3.60082
	1828.86	14.3831	3.79251
	1830.76	15.8113	3.97635
	1832.66	17.4432	4.1765
	1834.56	19.4162	4.40639
	1836.46	21.7066	4.65903
	1838.36	23.7639	4.87483
	1840.26	26.1825	5.11689
	1842.16	28.8277	5.36914
	1844.06	31.1946	5.58521
	1845.96	33.0808	5.75159
	1847.86	34.972	5.91371
	1849.76	37.0919	6.09031
	1851.66	39.025	6.247
	1853.56	40.3672	6.35352
	1855.46	41.1923	6.41813
	1857.36	41.9778	6.47903
	1859.26	42.8291	6.5444
	1861.16	43.3799	6.58634
	1863.06	43.2713	6.57809
	1864.96	42.7731	6.54011
	1866.86	41.9136	6.47407
	1868.76	40.9323	6.39784
	1870.66	38.9978	6.24482
	1872.56	36.5516	6.0458
	1874.47	33.7302	5.80777
	1876.37	30.6531	5.53652
	1878.27	27.2948	5.22445
	1880.17	23.9786	4.8968
	1882.07	20.6389	4.543
	1883.97	17.7248	4.21008
	1885.87	14.7778	3.84419
	1887.77	12.0333	3.4689
	1889.67	9.64481	3.10561
	1891.57	7.56161	2.74984
	1893.47	6.22009	2.49401
	1895.37	5.31582	2.30561
	1897.27	4.84366	2.20083
	1899.17	4.44141	2.10746
	1901.07	4.07653	2.01904
	1902.97	3.79037	1.94689
	1904.87	3.64844	1.91009
	1906.77	3.24669	1.80186
	1908.67	3.29916	1.81636
	1910.57	3.11788	1.76575
	1912.47	2.77029	1.66442
	1914.37	1.94242	1.39371
	1916.27	1.66537	1.29049
	1918.17	1.28699	1.13446
	1920.07	0.810825	0.900458
	1921.97	0.224558	0.473875
	1923.87	0.0971472	0.311685
	1925.77	-0.0364343	0.190878
	1927.67	-0.134759	0.367096
	1929.57	-0.0127438	0.112888
	1931.48	0.087787	0.296289
	1933.38	-0.0395384	0.198843
	1935.28	-0.201482	0.448867
	1937.18	-0.234734	0.484494
	1939.08	-0.172281	0.415068
	1940.98	-0.0180216	0.134245
	1942.88	0.189974	0.43586
	1944.78	0.131825	0.363078
	1946.68	-0.0505833	0.224907
	1948.58	-0.268754	0.518415
	1950.48	0.0288899	0.16997
	1952.38	0.283833	0.53276
	1954.28	0.301837	0.549397
	1956.18	0.230764	0.480379
	1958.08	0.463068	0.680491
	1959.98	0.503682	0.709706
	1961.88	0.449063	0.670121
	1963.78	0.240968	0.490885
	1965.68	0.2599	0.509804
	1967.58	0.237039	0.486867
	1969.48	0.299165	0.546959
	1971.38	0.0937932	0.306257
	1973.28	0.306919	0.554003
	1975.18	0.535208	0.731579
	1977.08	0.542602	0.736615
	1978.98	0.442258	0.665025
	1980.88	0.38611	0.621378
	1982.78	0.668793	0.817798
	1984.68	0.718886	0.847871
	1986.58	0.919402	0.958854
	1988.48	0.753374	0.867971
	1990.39	0.694348	0.833275
	1992.29	0.614987	0.784211
	1994.19	0.604053	0.777209
	1996.09	0.441586	0.664519
	1997.99	0.290727	0.539191
	1999.89	-0.0424471	0.206027
	2001.79	-0.127547	0.357137
	2003.69	-0.12722	0.356679
	2005.59	-0.068306	0.261354
	2007.49	0.0616839	0.248362
	2009.39	0.104364	0.323055
	2011.29	0.102466	0.320104
	2013.19	0.00196666	0.044347
	2015.09	-0.103107	0.321103
	2016.99	-0.00982838	0.0991382
	2018.89	0.101626	0.318789
	2020.79	0.0335282	0.183107
	2022.69	-0.0677072	0.260206
	2024.59	0.086286	0.293745
	2026.49	0.168531	0.410525
	2028.39	0.276085	0.525437
	2030.29	0.172948	0.41587
	2032.19	0.120924	0.347741
	2034.09	0.128481	0.358442
	2035.99	0.457011	0.676026
	2037.89	0.745691	0.863534
	2039.79	0.629742	0.793563
	2041.69	0.345067	0.587424
	2043.59	0.236767	0.486587
	2045.49	0.0260843	0.161506
	2047.39	4.42823e-06	0.00210433
	2049.3	-0.0363518	0.190661
	2051.2	-0.0440696	0.209928
	2053.1	0.0974624	0.31219
	2055	0.240928	0.490844
	2056.9	0.460421	0.678543
	2058.8	0.38601	0.621297
	2060.7	0.393868	0.627589
	2062.6	0.438223	0.661984
	2064.5	0.486316	0.697364
	2066.4	0.612553	0.782658
	2068.3	0.698608	0.835828
	2070.2	0.903004	0.950265
	2072.1	0.958649	0.979106
	2074	1.07244	1.03559
	2075.9	1.15119	1.07293
	2077.8	1.27328	1.1284
	2079.7	1.42327	1.19301
	2081.6	1.63084	1.27704
	2083.5	1.82677	1.35158
	2085.4	1.85503	1.36199
	2087.3	1.75343	1.32417
	2089.2	1.616	1.27122
	2091.1	1.50103	1.22517
	2093	1.52192	1.23366
	2094.9	1.35586	1.16441
	2096.8	1.26922	1.12659
	2098.7	1.05432	1.0268
	2100.6	1.13593	1.0658
	2102.5	1.34614	1.16023
	2104.4	1.40855	1.18682
	2106.31	1.17437	1.08368
	2108.21	0.928911	0.9638
	2110.11	0.907767	0.952768
	2112.01	0.964079	0.981875
	2113.91	0.950517	0.974945
	2115.81	0.651546	0.807184
	2117.71	0.64532	0.803318
	2119.61	0.713571	0.844731
	2121.51	0.828552	0.910249
	2123.41	0.694259	0.833222
	2125.31	0.869223	0.932321
	2127.21	0.995568	0.997781
	2129.11	0.964392	0.982034
	2131.01	0.557355	0.746562
	2132.91	0.2874	0.536097
	2134.81	0.203114	0.450681
	2136.71	0.209133	0.457311
	2138.61	0.194414	0.440924
	2140.51	0.0912417	0.302062
	2142.41	-0.059726	0.244389
	2144.31	0.0717214	0.267808
	2146.21	-0.0319516	0.17875
	2148.11	-0.126986	0.356351
	2150.01	-0.0913654	0.302267
	2151.91	0.153564	0.391873
	2153.81	0.141923	0.376727
	2155.71	0.0884205	0.297356
	2157.61	0.117271	0.342449
	2159.51	0.17768	0.421521
	2161.41	-0.088653	0.297747
	2163.31	-0.0911769	0.301955
	2165.22	0.1014	0.318434
	2167.12	0.284424	0.533314
	2169.02	0.190332	0.43627
	2170.92	0.140123	0.37433
	2172.82	0.130713	0.361543
	2174.72	0.198723	0.445784
	2176.62	0.146601	0.382886
	2178.52	0.145628	0.381613
	2180.42	0.0261707	0.161774
	2182.32	-0.000728467	0.0269901
	2184.22	-0.282478	0.531486
	2186.12	-0.159624	0.39953
	2188.02	-0.0327908	0.181082
	2189.92	0.0488948	0.221122
	2191.82	-0.105835	0.325323
	2193.72	0.0655746	0.256075
	2195.62	0.339751	0.582882
	2197.52	0.240682	0.490593
	2199.42	-0.180067	0.424343
	2201.32	-0.425875	0.652591
	2203.22	0.236366	0.486175
