Generated file C:/Users/didvk/Downloads/Dioptas_Win64_0.5.0/1_mask&dat&fxye_1position/21_ReMoB2_845psi_noRuby_S_P1_C1_D1w_133.fxye using DIOPTAS
# == pyFAI calibration ==
# Distance Sample to Detector: 0.21643023575112377 m
# PONI: 8.848e-02, 8.638e-02 m
# Rotations: 0.008179 -0.001145 -0.000000 rad
# 
# == Fit2d calibration ==
# Distance Sample-beamCenter: 216.438 mm
# Center: x=491.896, y=512.970 pix
# Tilt: 0.473 deg  TiltPlanRot: -172.032 deg
# 
# Detector Pilatus CdTe 1M	 PixelSize= 1.720e-04, 1.720e-04 m
#    Detector has a mask: True 
#    Detector has a dark current: False 
#    detector has a flat field: False 
# 
# Wavelength: 4.133e-11 m
# Mask applied: None
# Dark current applied: None
# Flat field applied: None
# Polarization factor: None
# Normalization factor: None
BANK	1	1006	1006 CONS	293.393	1.90033 0.4133 0.0 FXYE
	293.393	0.367822	0.606483
	295.294	0.749521	0.865749
	297.194	1.34894	1.16144
	299.094	1.79631	1.34027
	300.995	1.83726	1.35545
	302.895	1.83894	1.35607
	304.795	1.70524	1.30585
	306.696	2.09736	1.44823
	308.596	2.04312	1.42938
	310.496	2.02453	1.42286
	312.397	1.48054	1.21677
	314.297	0.885199	0.94085
	316.197	0.539582	0.734562
	318.098	0.859657	0.927177
	319.998	1.07515	1.03689
	321.898	1.48471	1.21849
	323.799	0.953433	0.976439
	325.699	1.20088	1.09585
	327.599	0.915778	0.956963
	329.5	1.30124	1.14072
	331.4	1.50113	1.22521
	333.3	1.5105	1.22902
	335.201	1.2405	1.11378
	337.101	0.904734	0.951175
	339.001	0.65255	0.807806
	340.902	1.18158	1.087
	342.802	1.68662	1.2987
	344.702	2.21879	1.48956
	346.603	1.83855	1.35593
	348.503	2.13191	1.46011
	350.403	2.42524	1.55732
	352.304	3.92327	1.98072
	354.204	4.86396	2.20544
	356.104	6.72949	2.59413
	358.005	8.48683	2.91322
	359.905	10.2057	3.19463
	361.805	10.3968	3.22441
	363.706	9.40528	3.0668
	365.606	7.65037	2.76593
	367.506	5.54404	2.35458
	369.407	4.13205	2.03274
	371.307	2.98921	1.72893
	373.207	2.37632	1.54153
	375.108	1.50903	1.22843
	377.008	1.4604	1.20847
	378.908	1.27777	1.13039
	380.808	0.743697	0.862379
	382.709	0.253533	0.50352
	384.609	0.11655	0.341394
	386.509	0.563041	0.750361
	388.41	0.86604	0.930613
	390.31	1.17336	1.08322
	392.21	1.52522	1.235
	394.111	1.65197	1.28529
	396.011	1.59716	1.26379
	397.911	1.41059	1.18768
	399.812	1.11551	1.05618
	401.712	0.82723	0.909522
	403.612	0.892805	0.944883
	405.513	0.804926	0.897177
	407.413	0.708945	0.841989
	409.313	0.432973	0.658007
	411.214	0.0329967	0.18165
	413.114	0.0210276	0.145009
	415.014	0.238606	0.488473
	416.915	0.203202	0.450779
	418.815	0.401984	0.634022
	420.715	0.179371	0.423522
	422.616	0.497171	0.705103
	424.516	0.087132	0.295181
	426.416	-0.0577453	0.240303
	428.317	-0.048216	0.219582
	430.217	0.443476	0.66594
	432.117	0.495889	0.704194
	434.018	0.280629	0.529744
	435.918	0.360334	0.600278
	437.818	0.276167	0.525516
	439.719	0.186887	0.432305
	441.619	0.0717077	0.267783
	443.519	0.121993	0.349275
	445.42	0.195785	0.442476
	447.32	0.403619	0.63531
	449.22	0.384241	0.619872
	451.121	0.622243	0.788824
	453.021	0.872888	0.934285
	454.921	0.570812	0.755521
	456.822	0.323236	0.568539
	458.722	0.345171	0.587512
	460.622	0.929742	0.964231
	462.523	1.25542	1.12046
	464.423	0.965746	0.982724
	466.323	0.232223	0.481895
	468.224	0.0555378	0.235665
	470.124	-0.0182074	0.134935
	472.024	0.805571	0.897536
	473.924	0.949088	0.974212
	475.825	0.898861	0.948083
	477.725	0.202272	0.449746
	479.625	-0.260026	0.509928
	481.526	0.130215	0.360852
	483.426	0.677922	0.82336
	485.326	0.666167	0.816191
	487.227	0.656132	0.81002
	489.127	0.814685	0.902599
	491.027	1.00441	1.0022
	492.928	0.722	0.849706
	494.828	1.0797	1.03908
	496.728	1.04448	1.022
	498.629	1.03271	1.01622
	500.529	0.297234	0.545192
	502.429	0.0976568	0.312501
	504.33	-0.0376168	0.193951
	506.23	0.085134	0.291777
	508.13	-0.0141499	0.118954
	510.031	0.574765	0.758133
	511.931	0.936389	0.967672
	513.831	0.933118	0.96598
	515.732	1.04598	1.02273
	517.632	1.43948	1.19978
	519.532	1.32801	1.15239
	521.433	1.14541	1.07024
	523.333	0.640396	0.800247
	525.233	0.526427	0.725553
	527.134	0.509645	0.713894
	529.034	0.70344	0.838713
	530.934	0.264243	0.514046
	532.835	0.0554001	0.235372
	534.735	-0.217208	0.466056
	536.635	0.19653	0.443317
	538.536	0.406681	0.637715
	540.436	0.468915	0.684774
	542.336	0.231295	0.480931
	544.237	0.113358	0.336686
	546.137	0.480751	0.693362
	548.037	1.22873	1.10848
	549.938	1.57525	1.25509
	551.838	1.62046	1.27297
	553.738	0.941534	0.970327
	555.639	0.969649	0.984708
	557.539	1.07438	1.03652
	559.439	1.50295	1.22595
	561.34	1.28254	1.13249
	563.24	0.918242	0.958249
	565.14	0.765631	0.875004
	567.041	0.704572	0.839388
	568.941	0.392681	0.626642
	570.841	-0.0236556	0.153804
	572.741	-0.107643	0.328091
	574.642	-0.134804	0.367157
	576.542	-0.0845852	0.290835
	578.442	0.47646	0.690261
	580.343	0.301864	0.549421
	582.243	0.48589	0.697058
	584.143	0.180818	0.425227
	586.044	0.135651	0.368308
	587.944	0.0663588	0.257602
	589.844	0.330652	0.575024
	591.745	1.01657	1.00825
	593.645	1.69023	1.30009
	595.545	2.04288	1.42929
	597.446	2.57697	1.6053
	599.346	2.85703	1.69028
	601.246	3.11072	1.76372
	603.147	2.62431	1.61997
	605.047	2.30451	1.51806
	606.947	1.75276	1.32392
	608.848	1.23096	1.10948
	610.748	1.00092	1.00046
	612.648	0.59468	0.771155
	614.549	0.424563	0.651585
	616.449	0.457015	0.676029
	618.349	0.385548	0.620925
	620.25	0.170033	0.412351
	622.15	0.257439	0.507385
	624.05	0.0682983	0.261339
	625.951	0.0301256	0.173567
	627.851	-0.195545	0.442205
	629.751	-0.0332593	0.182371
	631.652	0.0980787	0.313175
	633.552	0.0545843	0.233633
	635.452	0.10289	0.320765
	637.353	0.350214	0.591789
	639.253	0.371326	0.609365
	641.153	0.0347324	0.186366
	643.054	0.2125	0.460978
	644.954	0.652644	0.807864
	646.854	0.744549	0.862873
	648.755	0.301091	0.548717
	650.655	-0.0402015	0.200503
	652.555	0.377222	0.614184
	654.456	1.23585	1.11169
	656.356	2.36156	1.53674
	658.256	3.08065	1.75518
	660.157	4.36446	2.08913
	662.057	5.45917	2.33649
	663.957	5.94671	2.43859
	665.857	5.31989	2.30649
	667.758	4.35176	2.08609
	669.658	3.22674	1.79631
	671.558	1.87454	1.36914
	673.459	1.03693	1.0183
	675.359	0.492025	0.701445
	677.259	0.152912	0.39104
	679.16	-0.0459561	0.214374
	681.06	0.217413	0.466276
	682.96	0.794874	0.891557
	684.861	0.707347	0.841039
	686.761	0.612593	0.782683
	688.661	0.495187	0.703695
	690.562	0.909058	0.953445
	692.462	1.47735	1.21546
	694.362	2.71623	1.6481
	696.263	4.03864	2.00964
	698.163	5.26148	2.29379
	700.063	6.40812	2.53143
	701.964	8.25312	2.87282
	703.864	10.1483	3.18564
	705.764	11.6318	3.41055
	707.665	12.5926	3.5486
	709.565	13.4426	3.66641
	711.465	14.4806	3.80534
	713.366	16.4921	4.06104
	715.266	19.5458	4.42106
	717.166	25.1141	5.01139
	719.067	31.0791	5.57486
	720.967	38.7752	6.22698
	722.867	45.1647	6.72047
	724.768	48.7228	6.98017
	726.668	48.3412	6.95279
	728.568	45.4659	6.74284
	730.469	39.9721	6.32235
	732.369	34.3036	5.85693
	734.269	28.5009	5.33862
	736.17	22.8004	4.77498
	738.07	18.4179	4.29161
	739.97	15.2521	3.9054
	741.871	12.8618	3.58634
	743.771	10.6437	3.26247
	745.671	8.78438	2.96384
	747.572	7.38861	2.7182
	749.472	6.98324	2.64258
	751.372	6.57424	2.56403
	753.273	6.20049	2.49008
	755.173	5.55262	2.3564
	757.073	4.54965	2.13299
	758.973	4.16099	2.03985
	760.874	3.39559	1.84271
	762.774	3.2551	1.80419
	764.674	2.8425	1.68597
	766.575	2.37403	1.54079
	768.475	1.92678	1.38809
	770.375	1.64353	1.282
	772.276	1.84051	1.35665
	774.176	1.85048	1.36032
	776.076	1.64556	1.28279
	777.977	1.30184	1.14098
	779.877	1.23063	1.10934
	781.777	1.36571	1.16864
	783.678	1.32863	1.15266
	785.578	1.2195	1.10431
	787.478	0.976228	0.988042
	789.379	0.859699	0.927199
	791.279	0.565596	0.752061
	793.179	0.602499	0.776208
	795.08	0.655415	0.809577
	796.98	1.19514	1.09323
	798.88	1.08399	1.04115
	800.781	1.00758	1.00378
	802.681	0.782551	0.884619
	804.581	1.01119	1.00558
	806.482	0.658184	0.811285
	808.382	0.0970668	0.311555
	810.282	-0.0450081	0.212151
	812.183	0.121948	0.349211
	814.083	0.669068	0.817966
	815.983	0.56774	0.753485
	817.884	0.669384	0.818159
	819.784	0.461169	0.679094
	821.684	-0.0458655	0.214162
	823.585	-0.365721	0.604749
	825.485	-0.067873	0.260525
	827.385	0.161684	0.402099
	829.286	0.0659509	0.256809
	831.186	-0.114273	0.338042
	833.086	-0.168678	0.410705
	834.987	0.273377	0.522855
	836.887	0.489607	0.699719
	838.787	0.428054	0.654258
	840.688	0.430599	0.6562
	842.588	0.791101	0.889438
	844.488	0.946126	0.97269
	846.389	0.90049	0.948942
	848.289	0.655079	0.809369
	850.189	0.472476	0.687369
	852.089	0.42872	0.654767
	853.99	0.400501	0.632851
	855.89	0.573034	0.75699
	857.79	0.250073	0.500073
	859.691	0.0829435	0.287999
	861.591	0.134448	0.366671
	863.491	0.24088	0.490795
	865.392	0.222182	0.471362
	867.292	0.0797199	0.282347
	869.192	0.245392	0.495371
	871.093	0.252503	0.502497
	872.993	0.111935	0.334568
	874.893	-0.142116	0.376982
	876.794	-0.523234	0.723349
	878.694	-0.532418	0.72967
	880.594	-0.346493	0.588637
	882.495	0.212374	0.460841
	884.395	-0.201921	0.449356
	886.295	-0.371532	0.609535
	888.196	-0.244793	0.494766
	890.096	-0.274073	0.52352
	891.996	-0.340692	0.583689
	893.897	-0.367098	0.605886
	895.797	-0.174412	0.417626
	897.697	-0.0999924	0.316216
	899.598	0.370802	0.608935
	901.498	0.497027	0.705002
	903.398	0.434863	0.659442
	905.299	-0.0531412	0.230524
	907.199	0.442109	0.664913
	909.099	0.791945	0.889913
	911	0.863656	0.929331
	912.9	0.771923	0.878591
	914.8	0.964039	0.981855
	916.701	1.3201	1.14896
	918.601	1.75415	1.32444
	920.501	2.46158	1.56894
	922.402	3.476	1.8644
	924.302	4.72189	2.17299
	926.202	5.48428	2.34185
	928.103	6.30505	2.51098
	930.003	8.00578	2.82945
	931.903	10.5193	3.24334
	933.804	13.169	3.62892
	935.704	16.165	4.02057
	937.604	20.4229	4.51917
	939.505	25.5657	5.05626
	941.405	32.8624	5.73258
	943.305	42.1169	6.48975
	945.206	54.676	7.39432
	947.106	71.3624	8.44763
	949.006	93.0888	9.64825
	950.906	121.197	11.009
	952.807	155.168	12.4567
	954.707	195.124	13.9687
	956.607	235.024	15.3305
	958.508	266.789	16.3337
	960.408	286.941	16.9393
	962.308	295.033	17.1765
	964.209	291.956	17.0867
	966.109	281.047	16.7645
	968.009	265.052	16.2804
	969.91	247.49	15.7318
	971.81	229.363	15.1447
	973.71	212.792	14.5874
	975.611	196.688	14.0245
	977.511	180.75	13.4443
	979.411	165.024	12.8462
	981.312	151.541	12.3102
	983.212	139.15	11.7962
	985.112	127.959	11.3119
	987.013	117.845	10.8556
	988.913	109.599	10.4689
	990.813	101.827	10.0909
	992.714	96.6238	9.82974
	994.614	91.1076	9.54503
	996.514	87.3241	9.34474
	998.415	84.0625	9.16856
	1000.31	80.6401	8.97998
	1002.22	77.2017	8.78645
	1004.12	73.8223	8.59199
	1006.02	69.8777	8.35929
	1007.92	65.6952	8.10525
	1009.82	60.8514	7.80073
	1011.72	56.1231	7.49154
	1013.62	51.2405	7.15825
	1015.52	46.2701	6.80221
	1017.42	41.4842	6.44082
	1019.32	37.3675	6.1129
	1021.22	33.2257	5.76418
	1023.12	28.9691	5.3823
	1025.02	25.3365	5.03353
	1026.92	22.0361	4.69426
	1028.82	19.1661	4.37791
	1030.72	16.4152	4.05156
	1032.62	13.9817	3.73921
	1034.52	11.2837	3.35913
	1036.42	9.34857	3.05754
	1038.32	7.87558	2.80635
	1040.22	6.52778	2.55495
	1042.12	5.16652	2.273
	1044.02	3.89867	1.97451
	1045.92	2.90997	1.70586
	1047.82	1.82241	1.34997
	1049.72	0.632706	0.795428
	1051.62	-0.334016	0.577941
	1053.52	-0.720429	0.848781
	1055.42	-0.639231	0.799519
	1057.32	-0.622052	0.788703
	1059.23	-0.981049	0.990479
	1061.13	-1.05914	1.02915
	1063.03	-0.7598	0.871665
	1064.93	-0.257594	0.507537
	1066.83	0.200973	0.448301
	1068.73	1.18787	1.08989
	1070.63	2.55716	1.59911
	1072.53	3.4895	1.86802
	1074.43	4.24886	2.06128
	1076.33	4.77424	2.185
	1078.23	5.26263	2.29404
	1080.13	5.23135	2.28721
	1082.03	5.06305	2.25012
	1083.93	4.88816	2.21092
	1085.83	4.51464	2.12477
	1087.73	4.39055	2.09536
	1089.63	3.88324	1.97059
	1091.53	3.65138	1.91086
	1093.43	3.14324	1.77292
	1095.33	2.60809	1.61496
	1097.23	1.97393	1.40497
	1099.13	1.71402	1.30921
	1101.03	1.4977	1.2238
	1102.93	0.999138	0.999569
	1104.83	0.30428	0.551616
	1106.73	0.168076	0.409971
	1108.63	0.71965	0.848322
	1110.53	1.24684	1.11662
	1112.43	1.5122	1.22971
	1114.33	1.63793	1.27982
	1116.23	1.9449	1.3946
	1118.14	2.09976	1.44905
	1120.04	2.56065	1.6002
	1121.94	2.88204	1.69766
	1123.84	2.74718	1.65746
	1125.74	2.48781	1.57728
	1127.64	2.27499	1.50831
	1129.54	2.4344	1.56026
	1131.44	2.55398	1.59812
	1133.34	2.17089	1.47339
	1135.24	1.64006	1.28065
	1137.14	1.33657	1.1561
	1139.04	1.62036	1.27293
	1140.94	1.89155	1.37534
	1142.84	2.19532	1.48166
	1144.74	2.43205	1.5595
	1146.64	2.40642	1.55126
	1148.54	2.32092	1.52346
	1150.44	2.38852	1.54548
	1152.34	2.14931	1.46605
	1154.24	2.16091	1.47
	1156.14	2.16394	1.47103
	1158.04	2.45399	1.56652
	1159.94	2.05215	1.43253
	1161.84	1.52252	1.2339
	1163.74	1.2706	1.12721
	1165.64	1.32148	1.14956
	1167.54	1.3917	1.1797
	1169.44	1.09049	1.04426
	1171.34	0.658182	0.811284
	1173.24	0.382798	0.618707
	1175.15	0.319878	0.565578
	1177.05	0.323403	0.568685
	1178.95	0.147968	0.384667
	1180.85	-0.26555	0.515316
	1182.75	-0.465308	0.682135
	1184.65	-0.504735	0.710447
	1186.55	-0.523917	0.723821
	1188.45	-0.182721	0.427459
	1190.35	-0.26754	0.517243
	1192.25	-0.343599	0.586173
	1194.15	-0.484267	0.695893
	1196.05	-0.446564	0.668254
	1197.95	-0.18517	0.430314
	1199.85	-0.0257494	0.160466
	1201.75	-0.190117	0.436024
	1203.65	0.129591	0.359988
	1205.55	0.606222	0.778603
	1207.45	1.3984	1.18254
	1209.35	2.1934	1.48101
	1211.25	2.99177	1.72967
	1213.15	3.8882	1.97185
	1215.05	4.56434	2.13643
	1216.95	5.97306	2.44399
	1218.85	7.39213	2.71885
	1220.75	9.42126	3.06941
	1222.65	11.5766	3.40244
	1224.55	13.7603	3.70949
	1226.45	16.8286	4.10227
	1228.35	20.2539	4.50044
	1230.25	24.9057	4.99056
	1232.15	30.5927	5.53107
	1234.06	37.5724	6.12963
	1235.96	46.746	6.83711
	1237.86	58.3907	7.64138
	1239.76	73.7393	8.58716
	1241.66	93.9713	9.69388
	1243.56	118.657	10.893
	1245.46	150.944	12.2859
	1247.36	189.15	13.7532
	1249.26	233.78	15.2899
	1251.16	286.202	16.9175
	1253.06	340.144	18.443
	1254.96	394.393	19.8593
	1256.86	440.892	20.9974
	1258.76	476.095	21.8196
	1260.66	493.227	22.2087
	1262.56	496.675	22.2862
	1264.46	487.421	22.0776
	1266.36	464.516	21.5526
	1268.26	433.43	20.819
	1270.16	393.451	19.8356
	1272.06	347.645	18.6452
	1273.96	299.578	17.3083
	1275.86	252.269	15.883
	1277.76	208.365	14.4348
	1279.66	169.163	13.0063
	1281.56	133.76	11.5655
	1283.46	106.15	10.3029
	1285.36	84.211	9.17666
	1287.26	68.2166	8.25933
	1289.16	56.8184	7.5378
	1291.06	47.5779	6.89767
	1292.97	41.3124	6.42747
	1294.87	36.1782	6.01483
	1296.77	31.9939	5.65632
	1298.67	28.8221	5.36862
	1300.57	26.0361	5.10256
	1302.47	23.8291	4.88151
	1304.37	21.7228	4.66077
	1306.27	19.8586	4.4563
	1308.17	18.4215	4.29203
	1310.07	17.0698	4.13156
	1311.97	15.6432	3.95515
	1313.87	14.5703	3.81711
	1315.77	13.7436	3.70724
	1317.67	13.0829	3.61703
	1319.57	11.9211	3.4527
	1321.47	10.4165	3.22745
	1323.37	9.18753	3.03109
	1325.27	8.41867	2.9015
	1327.17	7.68562	2.7723
	1329.07	7.1778	2.67914
	1330.97	6.44074	2.53786
	1332.87	5.79369	2.40701
	1334.77	5.06398	2.25033
	1336.67	4.31813	2.07801
	1338.57	3.54563	1.88298
	1340.47	2.79225	1.671
	1342.37	2.48125	1.5752
	1344.27	2.54411	1.59503
	1346.17	2.53409	1.59188
	1348.07	2.81681	1.67833
	1349.98	2.78297	1.66822
	1351.88	3.13691	1.77113
	1353.78	2.86595	1.69291
	1355.68	2.68945	1.63996
	1357.58	2.65503	1.62943
	1359.48	2.84028	1.68531
	1361.38	3.15897	1.77735
	1363.28	3.09005	1.75785
	1365.18	3.22787	1.79663
	1367.08	2.90596	1.70469
	1368.98	2.77174	1.66485
	1370.88	2.51522	1.58595
	1372.78	2.69851	1.64272
	1374.68	3.06104	1.74958
	1376.58	3.20876	1.7913
	1378.48	3.2911	1.81414
	1380.38	3.11693	1.76548
	1382.28	2.88799	1.69941
	1384.18	2.39547	1.54773
	1386.08	1.75913	1.32632
	1387.98	1.48687	1.21937
	1389.88	1.08021	1.03933
	1391.78	0.706074	0.840282
	1393.68	0.579418	0.761195
	1395.58	0.612175	0.782416
	1397.48	0.456546	0.675682
	1399.38	0.200487	0.447758
	1401.28	0.0402141	0.200535
	1403.18	-0.402203	0.634195
	1405.08	-0.253322	0.503311
	1406.98	-0.246235	0.496221
	1408.89	-0.0875278	0.295851
	1410.79	-0.00582995	0.0763541
	1412.69	-0.316025	0.562161
	1414.59	-0.422923	0.650325
	1416.49	-0.569327	0.754538
	1418.39	-0.267774	0.517469
	1420.29	-0.291002	0.539446
	1422.19	0.109503	0.330913
	1424.09	0.619718	0.787221
	1425.99	0.854644	0.924469
	1427.89	1.00106	1.00053
	1429.79	1.35267	1.16305
	1431.69	2.0277	1.42397
	1433.59	3.0011	1.73237
	1435.49	3.44702	1.85662
	1437.39	3.43579	1.85359
	1439.29	3.71466	1.92734
	1441.19	4.80857	2.19285
	1443.09	5.70692	2.38892
	1444.99	6.16383	2.48271
	1446.89	6.25024	2.50005
	1448.79	6.45656	2.54098
	1450.69	6.90435	2.62761
	1452.59	6.87524	2.62207
	1454.49	6.91053	2.62879
	1456.39	6.89022	2.62492
	1458.29	6.67801	2.58418
	1460.19	6.46277	2.5422
	1462.09	6.3643	2.52276
	1463.99	6.31028	2.51203
	1465.89	6.336	2.51714
	1467.8	5.93406	2.43599
	1469.7	5.50909	2.34715
	1471.6	5.01096	2.23852
	1473.5	4.33518	2.08211
	1475.4	3.62092	1.90287
	1477.3	3.00479	1.73343
	1479.2	2.67822	1.63653
	1481.1	1.9826	1.40805
	1483	1.49148	1.22126
	1484.9	0.998554	0.999277
	1486.8	0.851566	0.922803
	1488.7	0.785826	0.886468
	1490.6	0.875959	0.935927
	1492.5	0.895759	0.946445
	1494.4	0.978522	0.989203
	1496.3	0.466465	0.682982
	1498.2	-0.0832388	0.288511
	1500.1	-0.400495	0.632847
	1502	-0.0393704	0.19842
	1503.9	0.581443	0.762524
	1505.8	0.502772	0.709064
	1507.7	0.237541	0.487381
	1509.6	0.0288393	0.169821
	1511.5	0.0140844	0.118678
	1513.4	0.37422	0.611735
	1515.3	0.529245	0.727493
	1517.2	0.526816	0.725821
	1519.1	0.549108	0.741018
	1521	0.399992	0.632449
	1522.9	0.0392892	0.198215
	1524.81	-0.277669	0.526943
	1526.71	-0.282859	0.531845
	1528.61	0.181236	0.425718
	1530.51	0.494833	0.703444
	1532.41	0.238105	0.48796
	1534.31	0.200318	0.447569
	1536.21	0.328734	0.573353
	1538.11	0.555896	0.745584
	1540.01	0.517265	0.719211
	1541.91	0.198228	0.445228
	1543.81	0.171613	0.414261
	1545.71	0.247027	0.497018
	1547.61	0.552313	0.743177
	1549.51	0.61951	0.78709
	1551.41	0.825747	0.908706
	1553.31	0.906348	0.952023
	1555.21	0.81382	0.90212
	1557.11	0.659022	0.811802
	1559.01	0.681419	0.825481
	1560.91	0.566938	0.752953
	1562.81	0.590421	0.768389
	1564.71	0.601087	0.775298
	1566.61	0.602965	0.776508
	1568.51	0.754413	0.868569
	1570.41	0.844275	0.918844
	1572.31	0.818219	0.904555
	1574.21	0.503709	0.709725
	1576.11	0.474596	0.688909
	1578.01	0.27989	0.529046
	1579.91	0.214312	0.462939
	1581.81	0.418849	0.647185
	1583.72	0.367547	0.606257
	1585.62	0.381858	0.617947
	1587.52	0.18775	0.433301
	1589.42	0.380484	0.616834
	1591.32	0.435879	0.660211
	1593.22	0.423484	0.650757
	1595.12	0.1121	0.334814
	1597.02	0.296064	0.544117
	1598.92	0.291147	0.53958
	1600.82	0.390045	0.624536
	1602.72	0.221613	0.470757
	1604.62	0.0452843	0.212801
	1606.52	-0.1786	0.422611
	1608.42	-0.198341	0.445355
	1610.32	-0.104422	0.323144
	1612.22	0.0469856	0.216762
	1614.12	0.422194	0.649764
	1616.02	0.658612	0.811549
	1617.92	0.954637	0.977055
	1619.82	0.984909	0.992426
	1621.72	0.91203	0.955003
	1623.62	0.998811	0.999405
	1625.52	1.52818	1.2362
	1627.42	1.972	1.40428
	1629.32	2.3507	1.5332
	1631.22	2.61325	1.61655
	1633.12	3.08061	1.75517
	1635.02	3.97863	1.99465
	1636.92	4.64654	2.15558
	1638.82	5.38063	2.31962
	1640.73	6.25472	2.50094
	1642.63	7.64807	2.76551
	1644.53	9.07054	3.01173
	1646.43	10.5943	3.25489
	1648.33	12.2804	3.50433
	1650.23	13.9944	3.74091
	1652.13	16.3755	4.04666
	1654.03	19.1916	4.38083
	1655.93	21.5729	4.64466
	1657.83	24.2997	4.92947
	1659.73	26.7183	5.16898
	1661.63	29.0688	5.39155
	1663.53	31.4781	5.61053
	1665.43	33.323	5.77261
	1667.33	34.8799	5.90592
	1669.23	36.0498	6.00415
	1671.13	36.4193	6.03484
	1673.03	36.8485	6.07029
	1674.93	36.6519	6.05408
	1676.83	36.4521	6.03755
	1678.73	35.8834	5.99028
	1680.63	34.8061	5.89967
	1682.53	34.0403	5.83441
	1684.43	32.8369	5.73035
	1686.33	31.6403	5.62497
	1688.23	30.447	5.51788
	1690.13	29.4521	5.42698
	1692.03	28.2872	5.31858
	1693.93	27.0754	5.2034
	1695.83	26.0394	5.10289
	1697.73	25.3411	5.03399
	1699.64	24.3771	4.93732
	1701.54	23.0379	4.79978
	1703.44	21.9289	4.68283
	1705.34	20.8136	4.56219
	1707.24	19.9284	4.46412
	1709.14	18.9077	4.3483
	1711.04	18.0537	4.24896
	1712.94	17.0806	4.13287
	1714.84	16.4201	4.05217
	1716.74	15.9337	3.9917
	1718.64	15.1729	3.89525
	1720.54	14.1807	3.76573
	1722.44	13.3409	3.65252
	1724.34	12.566	3.54485
	1726.24	12.1735	3.48906
	1728.14	12.2364	3.49806
	1730.04	11.7566	3.42878
	1731.94	10.6424	3.26227
	1733.84	9.03958	3.00659
	1735.74	7.71352	2.77732
	1737.64	6.87547	2.62211
	1739.54	6.56295	2.56183
	1741.44	6.19567	2.48911
	1743.34	5.4909	2.34327
	1745.24	4.73021	2.1749
	1747.14	4.19647	2.04853
	1749.04	3.60682	1.89916
	1750.94	3.11811	1.76582
	1752.84	2.89302	1.70089
	1754.74	2.76294	1.66221
	1756.64	2.70323	1.64415
	1758.55	2.31338	1.52098
	1760.45	2.20117	1.48363
	1762.35	2.12793	1.45874
	1764.25	2.14072	1.46312
	1766.15	2.28602	1.51196
	1768.05	2.48427	1.57616
	1769.95	2.63407	1.62298
	1771.85	2.50693	1.58333
	1773.75	2.36803	1.53884
	1775.65	2.39931	1.54897
	1777.55	2.59844	1.61197
	1779.45	2.47203	1.57227
	1781.35	2.3056	1.51842
	1783.25	2.58373	1.6074
	1785.15	2.47609	1.57356
	1787.05	2.41499	1.55402
	1788.95	2.30271	1.51747
	1790.85	2.40448	1.55064
	1792.75	2.3271	1.52548
	1794.65	2.43128	1.55926
	1796.55	2.46745	1.57081
	1798.45	2.87334	1.69509
	1800.35	2.91962	1.70869
	1802.25	2.95281	1.71837
	1804.15	2.67532	1.63564
	1806.05	2.56746	1.60233
	1807.95	2.70623	1.64506
	1809.85	3.29586	1.81545
	1811.75	3.70653	1.92524
	1813.65	3.80842	1.95152
	1815.56	3.73892	1.93363
	1817.46	3.93079	1.98262
	1819.36	4.84638	2.20145
	1821.26	5.55976	2.35791
	1823.16	6.14971	2.47986
	1825.06	6.35028	2.51998
	1826.96	7.01062	2.64776
	1828.86	8.0178	2.83157
	1830.76	8.72574	2.95394
	1832.66	9.58974	3.09673
	1834.56	10.7485	3.2785
	1836.46	12.2517	3.50024
	1838.36	13.6666	3.69684
	1840.26	15.5646	3.9452
	1842.16	17.8548	4.2255
	1844.06	20.0819	4.48128
	1845.96	22.2503	4.71702
	1847.86	24.2778	4.92725
	1849.76	26.4973	5.14756
	1851.66	29.1519	5.39925
	1853.56	31.614	5.62264
	1855.46	34.1034	5.83981
	1857.36	35.9375	5.99479
	1859.26	37.4321	6.11817
	1861.16	38.7588	6.22565
	1863.06	39.8425	6.31209
	1864.96	40.439	6.35917
	1866.86	40.5155	6.36518
	1868.76	40.2479	6.34412
	1870.66	39.3817	6.27548
	1872.56	38.2924	6.18808
	1874.47	36.7839	6.06497
	1876.37	35.0523	5.9205
	1878.27	32.879	5.73402
	1880.17	30.1965	5.49514
	1882.07	27.1783	5.21328
	1883.97	24.4918	4.94892
	1885.87	21.5615	4.64344
	1887.77	18.6027	4.31309
	1889.67	16.0942	4.01176
	1891.57	14.0434	3.74745
	1893.47	11.9541	3.45747
	1895.37	9.7667	3.12517
	1897.27	7.81293	2.79516
	1899.17	6.36821	2.52353
	1901.07	5.09555	2.25733
	1902.97	3.87285	1.96796
	1904.87	3.16896	1.78016
	1906.77	2.44838	1.56473
	1908.67	2.06941	1.43854
	1910.57	1.86709	1.36642
	1912.47	1.57092	1.25336
	1914.37	1.4953	1.22283
	1916.27	1.43991	1.19996
	1918.17	1.25078	1.11838
	1920.07	0.806141	0.897853
	1921.97	0.547887	0.740194
	1923.87	0.490253	0.700181
	1925.77	0.384769	0.620298
	1927.67	0.328229	0.572913
	1929.57	0.0679857	0.260741
	1931.48	0.108137	0.328841
	1933.38	0.0581178	0.241076
	1935.28	-0.112026	0.334703
	1937.18	-0.281567	0.530629
	1939.08	-0.255217	0.50519
	1940.98	-0.187935	0.433515
	1942.88	-0.0528948	0.229989
	1944.78	-0.0752527	0.274322
	1946.68	-0.10233	0.319891
	1948.58	-0.100317	0.316729
	1950.48	-0.148624	0.385518
	1952.38	-0.103913	0.322355
	1954.28	0.13056	0.361331
	1956.18	0.592398	0.769674
	1958.08	0.587677	0.766601
	1959.98	0.64244	0.801524
	1961.88	0.482653	0.694732
	1963.78	0.397784	0.630701
	1965.68	0.133141	0.364885
	1967.58	0.135517	0.368126
	1969.48	0.206368	0.454278
	1971.38	0.363722	0.603094
	1973.28	0.283983	0.532901
	1975.18	0.0566299	0.23797
	1977.08	-0.123375	0.351248
	1978.98	0.0782076	0.279656
	1980.88	0.254075	0.504059
	1982.78	0.158972	0.398712
	1984.68	0.0372907	0.193108
	1986.58	0.0214975	0.14662
	1988.48	0.0546341	0.233739
	1990.39	-0.00257649	0.0507591
	1992.29	-0.0264021	0.162487
	1994.19	0.205655	0.453492
	1996.09	0.548708	0.740748
	1997.99	0.705507	0.839945
	1999.89	0.669944	0.818501
	2001.79	0.542388	0.73647
	2003.69	0.269094	0.518742
	2005.59	0.0555317	0.235652
	2007.49	0.140437	0.37475
	2009.39	0.246788	0.496778
	2011.29	0.354317	0.595245
	2013.19	0.234035	0.483772
	2015.09	-0.0666833	0.258231
	2016.99	-0.242648	0.492594
	2018.89	-0.0813758	0.285265
	2020.79	0.148193	0.384958
	2022.69	0.252741	0.502733
	2024.59	0.0558442	0.236314
	2026.49	-0.131794	0.363034
	2028.39	-0.196358	0.443124
	2030.29	0.177585	0.421408
	2032.19	0.483265	0.695173
	2034.09	0.507857	0.712641
	2035.99	0.533301	0.730275
	2037.89	0.423395	0.650688
	2039.79	0.320536	0.566159
	2041.69	0.249981	0.499981
	2043.59	0.268615	0.518281
	2045.49	0.180059	0.424334
	2047.39	0.0608649	0.246708
	2049.3	0.18658	0.431949
	2051.2	0.387713	0.622666
	2053.1	0.37372	0.611327
	2055	0.368581	0.607108
	2056.9	0.272213	0.521741
	2058.8	0.382484	0.618453
	2060.7	0.449938	0.670774
	2062.6	0.562571	0.750048
	2064.5	0.640712	0.800445
	2066.4	0.363053	0.602539
	2068.3	0.252313	0.502308
	2070.2	0.555285	0.745175
	2072.1	0.884021	0.940224
	2074	1.0793	1.03889
	2075.9	1.17093	1.0821
	2077.8	1.33503	1.15543
	2079.7	1.4324	1.19683
	2081.6	1.47007	1.21247
	2083.5	1.39693	1.18192
	2085.4	1.25364	1.11966
	2087.3	1.18892	1.09038
	2089.2	1.11984	1.05823
	2091.1	1.17816	1.08543
	2093	1.26259	1.12365
	2094.9	1.46712	1.21125
	2096.8	1.38267	1.17587
	2098.7	1.29111	1.13627
	2100.6	1.42933	1.19555
	2102.5	1.44656	1.20273
	2104.4	1.25422	1.11992
	2106.31	1.06815	1.03351
	2108.21	1.15299	1.07377
	2110.11	1.13629	1.06597
	2112.01	0.861595	0.928221
	2113.91	0.727799	0.853111
	2115.81	0.83403	0.913252
	2117.71	0.868138	0.931739
	2119.61	0.734174	0.85684
	2121.51	0.782082	0.884354
	2123.41	0.965605	0.982652
	2125.31	0.90611	0.951898
	2127.21	0.807357	0.89853
	2129.11	0.725945	0.852024
	2131.01	0.516292	0.718535
	2132.91	0.241641	0.49157
	2134.81	0.0971323	0.311661
	2136.71	0.135518	0.368128
	2138.61	-0.0386177	0.196514
	2140.51	0.0672914	0.259406
	2142.41	0.188661	0.434351
	2144.31	0.329325	0.573869
	2146.21	0.186577	0.431946
	2148.11	0.0258758	0.160859
	2150.01	-0.0797286	0.282363
	2151.91	-0.0309086	0.175808
	2153.81	0.179374	0.423526
	2155.71	0.182923	0.427695
	2157.61	-0.0462701	0.215105
	2159.51	-0.00331028	0.057535
	2161.41	-0.00876268	0.0936092
	2163.31	-0.0150531	0.122691
	2165.22	-0.215956	0.464711
	2167.12	-0.0112685	0.106153
	2169.02	0.175645	0.4191
	2170.92	0.325286	0.570338
	2172.82	0.400231	0.632638
	2174.72	0.417891	0.646445
	2176.62	0.385908	0.621215
	2178.52	0.142294	0.377219
	2180.42	-0.0626725	0.250345
	2182.32	-0.0164224	0.12815
	2184.22	-0.00156394	0.0395467
	2186.12	-0.209574	0.457792
	2188.02	-0.291134	0.539568
	2189.92	-0.0739178	0.271878
	2191.82	0.170869	0.413362
	2193.72	0.175309	0.418699
	2195.62	0.186718	0.432108
	2197.52	0.0737173	0.271509
	2199.42	-0.144575	0.38023
	2201.32	-0.234866	0.48463
	2203.22	0.146763	0.383096
