Generated file C:/Users/didvk/Downloads/Dioptas_Win64_0.5.0/1_mask&dat&fxye_1position/22_ReMoB2_875psi_noRuby_S_P1_C1_D1w_139.fxye using DIOPTAS
# == pyFAI calibration ==
# Distance Sample to Detector: 0.21643023575112377 m
# PONI: 8.848e-02, 8.638e-02 m
# Rotations: 0.008179 -0.001145 -0.000000 rad
# 
# == Fit2d calibration ==
# Distance Sample-beamCenter: 216.438 mm
# Center: x=491.896, y=512.970 pix
# Tilt: 0.473 deg  TiltPlanRot: -172.032 deg
# 
# Detector Pilatus CdTe 1M	 PixelSize= 1.720e-04, 1.720e-04 m
#    Detector has a mask: True 
#    Detector has a dark current: False 
#    detector has a flat field: False 
# 
# Wavelength: 4.133e-11 m
# Mask applied: None
# Dark current applied: None
# Flat field applied: None
# Polarization factor: None
# Normalization factor: None
BANK	1	1006	1006 CONS	293.393	1.90033 0.4133 0.0 FXYE
	293.393	0.512281	0.715738
	295.294	-0.00245454	0.0495433
	297.194	-0.128252	0.358123
	299.094	0.0815243	0.285525
	300.995	0.37458	0.612029
	302.895	0.971036	0.985412
	304.795	1.32862	1.15266
	306.696	1.01266	1.00631
	308.596	0.800999	0.894986
	310.496	0.922791	0.96062
	312.397	1.49576	1.22301
	314.297	1.41375	1.18901
	316.197	0.628341	0.792679
	318.098	0.0257167	0.160364
	319.998	0.264079	0.513886
	321.898	0.67381	0.820859
	323.799	1.00366	1.00183
	325.699	1.42178	1.19238
	327.599	1.64249	1.2816
	329.5	1.41037	1.18759
	331.4	1.13879	1.06714
	333.3	1.35068	1.16219
	335.201	1.72829	1.31465
	337.101	2.1601	1.46973
	339.001	1.92576	1.38772
	340.902	2.14171	1.46346
	342.802	1.79384	1.33934
	344.702	1.7842	1.33574
	346.603	2.16075	1.46995
	348.503	2.5896	1.60922
	350.403	2.90208	1.70355
	352.304	3.5575	1.88613
	354.204	4.98151	2.23193
	356.104	6.77094	2.6021
	358.005	8.88718	2.98114
	359.905	11.807	3.43613
	361.805	14.2832	3.77931
	363.706	15.221	3.90141
	365.606	13.7109	3.70283
	367.506	11.2899	3.36005
	369.407	8.30834	2.88242
	371.307	5.39647	2.32303
	373.207	3.83036	1.95713
	375.108	2.9001	1.70297
	377.008	2.25962	1.5032
	378.908	1.91409	1.38351
	380.808	1.20586	1.09812
	382.709	0.952746	0.976087
	384.609	0.874416	0.935102
	386.509	1.2946	1.1378
	388.41	0.923367	0.96092
	390.31	0.952855	0.976143
	392.21	0.916138	0.957151
	394.111	0.785706	0.8864
	396.011	0.58676	0.766002
	397.911	0.318123	0.564024
	399.812	0.17505	0.41839
	401.712	0.248783	0.498781
	403.612	0.0685241	0.261771
	405.513	0.473554	0.688152
	407.413	0.668269	0.817477
	409.313	1.10987	1.0535
	411.214	1.1535	1.07401
	413.114	0.867611	0.931456
	415.014	0.68389	0.826976
	416.915	0.664445	0.815135
	418.815	0.56525	0.751831
	420.715	0.721539	0.849434
	422.616	0.612132	0.782389
	424.516	1.03633	1.018
	426.416	0.681064	0.825266
	428.317	0.794797	0.891514
	430.217	-0.0110834	0.105278
	432.117	-0.154512	0.39308
	434.018	-0.0758892	0.27548
	435.918	0.610545	0.781374
	437.818	0.793462	0.890765
	439.719	0.825729	0.908696
	441.619	1.08356	1.04094
	443.519	1.18027	1.0864
	445.42	0.753825	0.868231
	447.32	0.324838	0.569946
	449.22	0.600292	0.774785
	451.121	0.842104	0.917662
	453.021	0.979362	0.989627
	454.921	1.41644	1.19014
	456.822	1.79146	1.33846
	458.722	1.76363	1.32802
	460.622	0.810425	0.900236
	462.523	0.0739358	0.271911
	464.423	0.374806	0.612214
	466.323	0.905463	0.951558
	468.224	1.98413	1.40859
	470.124	2.40507	1.55083
	472.024	2.25439	1.50146
	473.924	2.03364	1.42606
	475.825	0.958935	0.979252
	477.725	0.405687	0.636936
	479.625	-0.271122	0.520694
	481.526	0.246911	0.496902
	483.426	0.795173	0.891725
	485.326	1.26581	1.12508
	487.227	1.57719	1.25586
	489.127	1.59872	1.26441
	491.027	1.678	1.29538
	492.928	1.79343	1.33919
	494.828	1.77056	1.33063
	496.728	1.77268	1.33142
	498.629	1.79177	1.33857
	500.529	1.82902	1.35241
	502.429	1.59708	1.26376
	504.33	0.987349	0.993654
	506.23	0.0375181	0.193696
	508.13	-0.305987	0.553161
	510.031	0.154515	0.393084
	511.931	0.64886	0.805519
	513.831	1.35394	1.16359
	515.732	1.36692	1.16915
	517.632	1.2881	1.13494
	519.532	0.466269	0.682839
	521.433	0.6621	0.813695
	523.333	0.67082	0.819036
	525.233	0.850051	0.921982
	527.134	1.0563	1.02776
	529.034	1.07999	1.03923
	530.934	0.969647	0.984707
	532.835	0.791956	0.889919
	534.735	0.840901	0.917006
	536.635	1.51698	1.23166
	538.536	1.95433	1.39797
	540.436	1.71823	1.31081
	542.336	1.27305	1.12829
	544.237	1.23809	1.11269
	546.137	1.19926	1.09511
	548.037	0.997691	0.998845
	549.938	0.662164	0.813735
	551.838	0.468188	0.684243
	553.738	0.581985	0.762879
	555.639	0.549521	0.741297
	557.539	0.835121	0.91385
	559.439	1.3522	1.16284
	561.34	1.34664	1.16045
	563.24	1.09384	1.04587
	565.14	0.650192	0.806345
	567.041	0.96396	0.981814
	568.941	0.765474	0.874914
	570.841	0.456683	0.675783
	572.741	0.122767	0.350382
	574.642	0.358582	0.598817
	576.542	0.180866	0.425284
	578.442	-0.0186824	0.136684
	580.343	0.195225	0.441843
	582.243	0.302642	0.55013
	584.143	0.147703	0.384321
	586.044	-0.344845	0.587235
	587.944	-0.17463	0.417887
	589.844	0.589081	0.767516
	591.745	1.20334	1.09697
	593.645	1.58644	1.25954
	595.545	2.09079	1.44596
	597.446	2.68566	1.6388
	599.346	2.75959	1.6612
	601.246	2.33615	1.52845
	603.147	1.63372	1.27817
	605.047	1.10511	1.05124
	606.947	0.982135	0.991027
	608.848	0.864728	0.929908
	610.748	1.12556	1.06092
	612.648	0.86855	0.93196
	614.549	0.801814	0.895441
	616.449	0.589903	0.768052
	618.349	0.455463	0.67488
	620.25	0.463963	0.681148
	622.15	0.730708	0.854814
	624.05	0.898954	0.948132
	625.951	0.92413	0.961317
	627.851	0.871564	0.933576
	629.751	0.83562	0.914123
	631.652	0.408339	0.639014
	633.552	0.21373	0.462309
	635.452	0.02088	0.144499
	637.353	-0.0922822	0.30378
	639.253	0.0896512	0.299418
	641.153	0.291273	0.539697
	643.054	0.25983	0.509736
	644.954	0.352475	0.593696
	646.854	0.198887	0.445967
	648.755	-0.0964612	0.310582
	650.655	-0.0609617	0.246904
	652.555	-0.255751	0.505718
	654.456	0.330993	0.57532
	656.356	0.811112	0.900618
	658.256	1.9823	1.40794
	660.157	3.05886	1.74896
	662.057	4.44814	2.10906
	663.957	5.63013	2.37279
	665.857	5.56336	2.35868
	667.758	4.49768	2.12077
	669.658	3.35114	1.83061
	671.558	2.49723	1.58026
	673.459	1.97611	1.40574
	675.359	1.17737	1.08507
	677.259	0.634201	0.796367
	679.16	0.503008	0.709231
	681.06	0.459288	0.677708
	682.96	0.554072	0.74436
	684.861	0.290096	0.538606
	686.761	0.538199	0.73362
	688.661	0.846358	0.919977
	690.562	1.32971	1.15313
	692.462	2.108	1.4519
	694.362	2.93717	1.71382
	696.263	3.89395	1.97331
	698.163	5.52384	2.35028
	700.063	7.39131	2.7187
	701.964	9.38367	3.06328
	703.864	11.1217	3.33493
	705.764	12.4249	3.5249
	707.665	13.3942	3.65981
	709.565	14.8827	3.85781
	711.465	16.1795	4.02237
	713.366	18.5768	4.31009
	715.266	21.6837	4.65657
	717.166	28.1188	5.30271
	719.067	35.7933	5.98275
	720.967	45.0629	6.71289
	722.867	53.7164	7.32915
	724.768	61.0592	7.81404
	726.668	65.0681	8.06648
	728.568	64.7212	8.04495
	730.469	59.781	7.73182
	732.369	52.9708	7.27811
	734.269	45.5728	6.75076
	736.17	38.789	6.22808
	738.07	32.9555	5.74069
	739.97	27.2097	5.21629
	741.871	22.757	4.77043
	743.771	19.4803	4.41364
	745.671	16.371	4.04611
	747.572	14.2705	3.77763
	749.472	12.6218	3.55272
	751.372	11.3161	3.36394
	753.273	9.83312	3.13578
	755.173	8.54071	2.92245
	757.073	7.70732	2.77621
	758.973	7.12477	2.66923
	760.874	6.43271	2.53628
	762.774	5.92188	2.43349
	764.674	5.81007	2.41041
	766.575	5.44905	2.33432
	768.475	5.05531	2.2484
	770.375	4.47116	2.11451
	772.276	4.34574	2.08464
	774.176	4.62077	2.1496
	776.076	4.62716	2.15108
	777.977	4.43752	2.10654
	779.877	3.98525	1.99631
	781.777	3.41066	1.8468
	783.678	2.68053	1.63723
	785.578	2.74258	1.65607
	787.478	2.73308	1.6532
	789.379	2.34694	1.53197
	791.279	1.91703	1.38457
	793.179	1.61713	1.27166
	795.08	1.45146	1.20477
	796.98	1.117	1.05688
	798.88	1.2895	1.13556
	800.781	1.18561	1.08886
	802.681	1.25038	1.11821
	804.581	0.77598	0.880897
	806.482	0.488354	0.698823
	808.382	0.79369	0.890893
	810.282	1.02767	1.01374
	812.183	1.0014	1.0007
	814.083	0.672688	0.820176
	815.983	0.475536	0.689591
	817.884	0.421063	0.648893
	819.784	0.230258	0.479852
	821.684	0.0825263	0.287274
	823.585	-0.0795491	0.282045
	825.485	-0.195314	0.441944
	827.385	0.149171	0.386226
	829.286	0.187245	0.432718
	831.186	0.285963	0.534755
	833.086	0.574865	0.758199
	834.987	0.57551	0.758624
	836.887	0.278198	0.527445
	838.787	0.198597	0.445642
	840.688	0.433481	0.658393
	842.588	0.881804	0.939044
	844.488	0.983603	0.991767
	846.389	0.849973	0.92194
	848.289	0.48034	0.693066
	850.189	0.248174	0.498171
	852.089	0.446312	0.668066
	853.99	0.760859	0.872273
	855.89	0.923248	0.960858
	857.79	0.452985	0.673041
	859.691	-0.0178996	0.133789
	861.591	-0.390467	0.624873
	863.491	-0.278238	0.527483
	865.392	-0.410486	0.640692
	867.292	-0.434754	0.659359
	869.192	-0.295109	0.543239
	871.093	-0.263572	0.513392
	872.993	-0.167537	0.409313
	874.893	-0.138463	0.372106
	876.794	0.255277	0.505249
	878.694	0.0189142	0.137529
	880.594	0.0272662	0.165125
	882.495	-0.144425	0.380033
	884.395	-0.136402	0.369326
	886.295	-0.0666865	0.258237
	888.196	0.14128	0.375872
	890.096	-0.0518007	0.227598
	891.996	-0.0344505	0.185609
	893.897	-0.152478	0.390484
	895.797	-0.140099	0.374298
	897.697	-0.478257	0.691561
	899.598	-0.421326	0.649097
	901.498	-0.0983532	0.313613
	903.398	0.109872	0.331469
	905.299	0.291058	0.539498
	907.199	0.330547	0.574932
	909.099	0.64522	0.803256
	911	0.552388	0.743228
	912.9	0.720772	0.848983
	914.8	0.923138	0.960801
	916.701	1.3998	1.18313
	918.601	1.7181	1.31076
	920.501	2.20561	1.48513
	922.402	2.27993	1.50995
	924.302	3.09355	1.75885
	926.202	3.93377	1.98337
	928.103	5.3749	2.31838
	930.003	6.43805	2.53733
	931.903	8.21838	2.86677
	933.804	10.56	3.24961
	935.704	13.2517	3.64029
	937.604	15.9258	3.99071
	939.505	19.3456	4.39836
	941.405	24.4207	4.94173
	943.305	30.471	5.52005
	945.206	38.5246	6.20682
	947.106	49.6308	7.04491
	949.006	63.996	7.99975
	950.906	84.431	9.18864
	952.807	108.997	10.4402
	954.707	141.569	11.8983
	956.607	175.897	13.2626
	958.508	210.055	14.4933
	960.408	238.088	15.4301
	962.308	254.282	15.9462
	964.209	263.477	16.232
	966.109	263.003	16.2174
	968.009	256.976	16.0305
	969.91	246.496	15.7002
	971.81	235.256	15.3381
	973.71	222.346	14.9113
	975.611	211.122	14.53
	977.511	197.825	14.065
	979.411	187.372	13.6884
	981.312	176.136	13.2716
	983.212	167.287	12.934
	985.112	159.762	12.6397
	987.013	154.538	12.4313
	988.913	151.359	12.3028
	990.813	148.962	12.205
	992.714	148.932	12.2038
	994.614	151.123	12.2932
	996.514	154.175	12.4167
	998.415	156.029	12.4912
	1000.31	156.702	12.5181
	1002.22	154.211	12.4182
	1004.12	151.031	12.2895
	1006.02	144.278	12.0116
	1007.92	136.705	11.6921
	1009.82	126.489	11.2467
	1011.72	115.234	10.7347
	1013.62	103.844	10.1904
	1015.52	92.5103	9.61823
	1017.42	81.3961	9.02198
	1019.32	71.0845	8.43116
	1021.22	61.4864	7.84133
	1023.12	52.553	7.24935
	1025.02	43.9368	6.62849
	1026.92	36.7521	6.06235
	1028.82	30.3534	5.50939
	1030.72	25.1222	5.0122
	1032.62	20.3859	4.51508
	1034.52	15.9608	3.9951
	1036.42	12.8422	3.58361
	1038.32	10.3365	3.21505
	1040.22	8.23742	2.87009
	1042.12	6.40657	2.53112
	1044.02	4.42396	2.10332
	1045.92	2.94219	1.71528
	1047.82	1.69495	1.3019
	1049.72	0.999577	0.999789
	1051.62	0.376803	0.613843
	1053.52	-0.261276	0.511151
	1055.42	-0.540109	0.734921
	1057.32	-0.760124	0.871851
	1059.23	-0.952011	0.97571
	1061.13	-0.92826	0.963462
	1063.03	-1.01344	1.0067
	1064.93	-0.884542	0.940501
	1066.83	-0.923984	0.961241
	1068.73	-0.84241	0.917829
	1070.63	-0.368056	0.606676
	1072.53	-0.167249	0.408961
	1074.43	0.25353	0.503518
	1076.33	0.571573	0.756025
	1078.23	0.892568	0.944758
	1080.13	1.3545	1.16383
	1082.03	1.8646	1.36551
	1083.93	2.26789	1.50595
	1085.83	2.64511	1.62638
	1087.73	3.40057	1.84406
	1089.63	3.62832	1.90482
	1091.53	3.61819	1.90215
	1093.43	3.61481	1.90126
	1095.33	3.64825	1.91004
	1097.23	3.89331	1.97315
	1099.13	3.43283	1.85279
	1101.03	3.32098	1.82235
	1102.93	2.78326	1.66831
	1104.83	2.04209	1.42902
	1106.73	1.91552	1.38402
	1108.63	1.79941	1.34142
	1110.53	1.92198	1.38635
	1112.43	2.00537	1.41611
	1114.33	2.57817	1.60567
	1116.23	2.75642	1.66025
	1118.14	2.6958	1.64189
	1120.04	2.29894	1.51623
	1121.94	2.09348	1.44689
	1123.84	2.26089	1.50363
	1125.74	2.71922	1.64901
	1127.64	3.11187	1.76405
	1129.54	3.10215	1.76129
	1131.44	3.21695	1.79359
	1133.34	3.54684	1.88331
	1135.24	4.25666	2.06317
	1137.14	4.40879	2.09971
	1139.04	4.55486	2.13421
	1140.94	5.00461	2.2371
	1142.84	5.63275	2.37334
	1144.74	6.28201	2.50639
	1146.64	6.45553	2.54077
	1148.54	6.94205	2.63478
	1150.44	6.8616	2.61947
	1152.34	7.00519	2.64673
	1154.24	6.65454	2.57964
	1156.14	6.40241	2.5303
	1158.04	6.14037	2.47798
	1159.94	5.81663	2.41177
	1161.84	5.47658	2.34021
	1163.74	5.22316	2.28542
	1165.64	5.0264	2.24196
	1167.54	4.72863	2.17454
	1169.44	4.05471	2.01363
	1171.34	3.39066	1.84137
	1173.24	2.41632	1.55445
	1175.15	2.03529	1.42664
	1177.05	1.49594	1.22309
	1178.95	0.728131	0.853306
	1180.85	0.252582	0.502576
	1182.75	0.136888	0.369983
	1184.65	-0.156382	0.395452
	1186.55	-0.0772595	0.277956
	1188.45	-0.274679	0.524098
	1190.35	-0.0707795	0.266044
	1192.25	-0.287576	0.536261
	1194.15	-0.519591	0.720826
	1196.05	-0.773298	0.879374
	1197.95	-0.932461	0.96564
	1199.85	-0.800698	0.894817
	1201.75	-0.740192	0.860344
	1203.65	-0.540277	0.735036
	1205.55	-0.374018	0.61157
	1207.45	0.208458	0.456573
	1209.35	0.851281	0.922649
	1211.25	1.56882	1.25253
	1213.15	2.14689	1.46523
	1215.05	2.87585	1.69583
	1216.95	3.96667	1.99165
	1218.85	5.42225	2.32857
	1220.75	7.04047	2.65339
	1222.65	8.71413	2.95197
	1224.55	10.4817	3.23755
	1226.45	12.6061	3.55051
	1228.35	15.3097	3.91276
	1230.25	19.2918	4.39225
	1232.15	24.2475	4.92417
	1234.06	30.1743	5.49311
	1235.96	37.5859	6.13073
	1237.86	47.7554	6.91053
	1239.76	60.8337	7.7996
	1241.66	78.8691	8.88083
	1243.56	99.4487	9.9724
	1245.46	126.712	11.2567
	1247.36	159.836	12.6426
	1249.26	197.129	14.0403
	1251.16	241.55	15.5419
	1253.06	285.883	16.9081
	1254.96	332.076	18.223
	1256.86	373.25	19.3197
	1258.76	404.33	20.108
	1260.66	423.466	20.5783
	1262.56	428.271	20.6947
	1264.46	421.316	20.526
	1266.36	402.559	20.0639
	1268.26	376.968	19.4157
	1270.16	345.711	18.5933
	1272.06	310.342	17.6165
	1273.96	273.35	16.5333
	1275.86	236.144	15.367
	1277.76	200.965	14.1762
	1279.66	169.337	13.013
	1281.56	141.031	11.8757
	1283.46	116.822	10.8084
	1285.36	96.9813	9.84791
	1287.26	80.6492	8.98049
	1289.16	68.2647	8.26225
	1291.06	57.2318	7.56517
	1292.97	49.3586	7.02557
	1294.87	43.1644	6.56997
	1296.77	38.0889	6.17162
	1298.67	34.3718	5.86274
	1300.57	30.8374	5.55315
	1302.47	28.5487	5.3431
	1304.37	26.2965	5.12801
	1306.27	24.5134	4.9511
	1308.17	22.8949	4.78486
	1310.07	21.5984	4.64741
	1311.97	20.0302	4.47551
	1313.87	18.8879	4.34602
	1315.77	17.7279	4.21045
	1317.67	16.8642	4.10661
	1319.57	15.6611	3.95741
	1321.47	14.1355	3.75972
	1323.37	12.6468	3.55624
	1325.27	11.5048	3.39187
	1327.17	11.0717	3.32742
	1329.07	10.4738	3.23633
	1330.97	10.0962	3.17746
	1332.87	9.33904	3.05598
	1334.77	8.69902	2.94941
	1336.67	7.80426	2.79361
	1338.57	7.41619	2.72327
	1340.47	6.96076	2.63833
	1342.37	6.83182	2.61378
	1344.27	6.6762	2.58384
	1346.17	6.49788	2.54909
	1348.07	6.68953	2.58641
	1349.98	6.39945	2.52971
	1351.88	6.62483	2.57387
	1353.78	6.56577	2.56238
	1355.68	6.55239	2.55976
	1357.58	6.51879	2.55319
	1359.48	6.71471	2.59128
	1361.38	6.81729	2.61099
	1363.28	6.93373	2.6332
	1365.18	6.53168	2.55572
	1367.08	6.33329	2.5166
	1368.98	6.37196	2.52427
	1370.88	6.53358	2.55609
	1372.78	6.55157	2.5596
	1374.68	6.14087	2.47808
	1376.58	5.89387	2.42773
	1378.48	5.60886	2.3683
	1380.38	4.7397	2.17708
	1382.28	4.35967	2.08798
	1384.18	4.25995	2.06396
	1386.08	4.16238	2.04019
	1387.98	3.78268	1.94491
	1389.88	3.33394	1.82591
	1391.78	2.7752	1.66589
	1393.68	2.4075	1.55161
	1395.58	1.94401	1.39428
	1397.48	1.67191	1.29302
	1399.38	1.1682	1.08083
	1401.28	0.896704	0.946945
	1403.18	0.679881	0.824549
	1405.08	0.438674	0.662325
	1406.98	0.152638	0.390689
	1408.89	-0.271817	0.521361
	1410.79	-0.394304	0.627937
	1412.69	-0.571182	0.755766
	1414.59	-0.767984	0.876347
	1416.49	-0.962165	0.9809
	1418.39	-0.566811	0.752869
	1420.29	-0.213455	0.462012
	1422.19	-0.109929	0.331556
	1424.09	-0.466474	0.682989
	1425.99	-0.574069	0.757673
	1427.89	-0.0848935	0.291365
	1429.79	0.618002	0.786131
	1431.69	1.12759	1.06188
	1433.59	1.86241	1.3647
	1435.49	2.38545	1.54449
	1437.39	2.9664	1.72232
	1439.29	3.51173	1.87396
	1441.19	4.28715	2.07054
	1443.09	5.16077	2.27173
	1444.99	5.79903	2.40812
	1446.89	6.82347	2.61218
	1448.79	7.79642	2.79221
	1450.69	8.65052	2.94118
	1452.59	9.39837	3.06568
	1454.49	10.3511	3.21731
	1456.39	11.5936	3.40494
	1458.29	12.2946	3.50637
	1460.19	12.6729	3.5599
	1462.09	12.4956	3.53491
	1463.99	11.941	3.45557
	1465.89	10.7234	3.27466
	1467.8	9.36462	3.06017
	1469.7	7.42285	2.72449
	1471.6	5.99867	2.44922
	1473.5	4.88889	2.21108
	1475.4	4.29113	2.0715
	1477.3	3.50157	1.87125
	1479.2	2.62174	1.61918
	1481.1	2.22147	1.49046
	1483	2.19733	1.48234
	1484.9	1.91762	1.38478
	1486.8	1.80373	1.34303
	1488.7	1.49423	1.22239
	1490.6	1.42136	1.19221
	1492.5	1.06077	1.02994
	1494.4	0.781002	0.883743
	1496.3	0.630204	0.793854
	1498.2	0.466412	0.682944
	1500.1	0.0777109	0.278767
	1502	-0.388271	0.623114
	1503.9	0.0102965	0.101472
	1505.8	0.481176	0.693668
	1507.7	0.525602	0.724984
	1509.6	0.259898	0.509802
	1511.5	-0.191004	0.43704
	1513.4	-0.457317	0.676252
	1515.3	-0.268383	0.518057
	1517.2	0.0370824	0.192568
	1519.1	-0.0650151	0.254981
	1521	-0.0845282	0.290737
	1522.9	0.0146576	0.121069
	1524.81	0.667548	0.817036
	1526.71	2.44066	1.56226
	1528.61	4.07246	2.01803
	1530.51	3.5047	1.87209
	1532.41	2.87075	1.69433
	1534.31	1.66825	1.29161
	1536.21	1.50542	1.22696
	1538.11	1.02751	1.01366
	1540.01	-0.0539146	0.232195
	1541.91	0.285978	0.534769
	1543.81	0.464096	0.681246
	1545.71	0.777368	0.881685
	1547.61	0.882857	0.939605
	1549.51	0.894535	0.945799
	1551.41	0.932019	0.965411
	1553.31	0.731061	0.855021
	1555.21	0.522286	0.722694
	1557.11	0.34702	0.589084
	1559.01	0.433265	0.658228
	1560.91	0.576267	0.759123
	1562.81	0.648972	0.805588
	1564.71	1.06543	1.0322
	1566.61	1.24549	1.11602
	1568.51	1.11074	1.05392
	1570.41	1.23617	1.11183
	1572.31	1.27223	1.12793
	1574.21	1.05067	1.02502
	1576.11	0.870602	0.933061
	1578.01	0.671936	0.819717
	1579.91	0.61705	0.785525
	1581.81	0.548905	0.740882
	1583.72	0.298827	0.546651
	1585.62	0.20827	0.456366
	1587.52	0.325535	0.570556
	1589.42	0.457402	0.676315
	1591.32	0.39555	0.628928
	1593.22	-0.0100923	0.100461
	1595.12	0.064629	0.254222
	1597.02	0.104758	0.323663
	1598.92	0.162105	0.402623
	1600.82	0.142344	0.377285
	1602.72	0.188581	0.434259
	1604.62	0.162512	0.403128
	1606.52	-0.0662435	0.257378
	1608.42	-0.00698447	0.0835732
	1610.32	0.0163121	0.127719
	1612.22	-0.0109103	0.104453
	1614.12	0.0615434	0.248079
	1616.02	0.371024	0.609117
	1617.92	0.434981	0.659531
	1619.82	0.595059	0.771401
	1621.72	0.707021	0.840845
	1623.62	0.978749	0.989318
	1625.52	0.943576	0.971379
	1627.42	0.949007	0.97417
	1629.32	0.954957	0.977219
	1631.22	1.37961	1.17457
	1633.12	1.99049	1.41085
	1635.02	2.46771	1.57089
	1636.92	2.91486	1.7073
	1638.82	3.2286	1.79683
	1640.73	3.80277	1.95007
	1642.63	4.38633	2.09436
	1644.53	4.70583	2.16929
	1646.43	5.23204	2.28737
	1648.33	5.96995	2.44335
	1650.23	6.86282	2.6197
	1652.13	7.87795	2.80677
	1654.03	8.96167	2.9936
	1655.93	9.93336	3.15172
	1657.83	10.7873	3.2844
	1659.73	11.7306	3.42499
	1661.63	12.8824	3.58921
	1663.53	14.1775	3.76531
	1665.43	15.206	3.89949
	1667.33	15.8898	3.9862
	1669.23	16.3962	4.04922
	1671.13	17.1662	4.14321
	1673.03	18.1136	4.25601
	1674.93	18.7637	4.33171
	1676.83	19.204	4.38223
	1678.73	19.2135	4.38332
	1680.63	19.1396	4.37489
	1682.53	19.1287	4.37363
	1684.43	19.289	4.39193
	1686.33	19.3681	4.40092
	1688.23	19.486	4.4143
	1690.13	19.313	4.39465
	1692.03	19.1618	4.37741
	1693.93	18.9497	4.35312
	1695.83	18.9093	4.34849
	1697.73	18.8025	4.33618
	1699.64	18.3869	4.288
	1701.54	17.7957	4.2185
	1703.44	17.7296	4.21065
	1705.34	17.5716	4.19185
	1707.24	17.5097	4.18446
	1709.14	16.7301	4.09024
	1711.04	16.1258	4.01569
	1712.94	15.4106	3.92563
	1714.84	15.3239	3.91457
	1716.74	15.3262	3.91488
	1718.64	15.6364	3.95429
	1720.54	16.041	4.00513
	1722.44	16.242	4.03013
	1724.34	16.1796	4.02238
	1726.24	15.8027	3.97526
	1728.14	15.3846	3.92233
	1730.04	14.8772	3.85709
	1731.94	14.3152	3.78354
	1733.84	13.591	3.6866
	1735.74	13.0015	3.60575
	1737.64	11.771	3.4309
	1739.54	10.5418	3.24682
	1741.44	9.50211	3.08255
	1743.34	8.4476	2.90648
	1745.24	7.4065	2.72149
	1747.14	6.58489	2.5661
	1749.04	5.93213	2.4356
	1750.94	5.4241	2.32897
	1752.84	4.68339	2.16411
	1754.74	4.10305	2.0256
	1756.64	3.5647	1.88804
	1758.55	3.34503	1.82894
	1760.45	3.1102	1.76358
	1762.35	2.91787	1.70818
	1764.25	2.60768	1.61483
	1766.15	2.32813	1.52582
	1768.05	2.39784	1.5485
	1769.95	2.70018	1.64322
	1771.85	2.76171	1.66184
	1773.75	2.86643	1.69305
	1775.65	2.47653	1.5737
	1777.55	2.49312	1.57896
	1779.45	2.44717	1.56434
	1781.35	2.38852	1.54548
	1783.25	2.49417	1.5793
	1785.15	2.60567	1.61421
	1787.05	2.70536	1.6448
	1788.95	2.59626	1.61129
	1790.85	2.6281	1.62114
	1792.75	2.7226	1.65003
	1794.65	2.9682	1.72285
	1796.55	3.06086	1.74953
	1798.45	3.03254	1.74142
	1800.35	3.33135	1.8252
	1802.25	3.38812	1.84068
	1804.15	3.61804	1.90211
	1806.05	3.59827	1.89691
	1807.95	3.55074	1.88434
	1809.85	3.5899	1.8947
	1811.75	3.69826	1.92309
	1813.65	4.09696	2.0241
	1815.56	4.32099	2.0787
	1817.46	4.82947	2.19761
	1819.36	5.1155	2.26175
	1821.26	4.97417	2.23029
	1823.16	5.12167	2.26311
	1825.06	5.72719	2.39315
	1826.96	6.68057	2.58468
	1828.86	7.21321	2.68574
	1830.76	7.77084	2.78762
	1832.66	8.56964	2.9274
	1834.56	9.69058	3.11297
	1836.46	10.7565	3.2797
	1838.36	11.8832	3.44719
	1840.26	13.1298	3.62351
	1842.16	14.8669	3.85576
	1844.06	16.6901	4.08535
	1845.96	18.4644	4.29703
	1847.86	20.7019	4.54993
	1849.76	22.7795	4.77278
	1851.66	25.0431	5.0043
	1853.56	27.2261	5.21787
	1855.46	29.5875	5.43944
	1857.36	31.5206	5.61432
	1859.26	33.0772	5.75128
	1861.16	34.172	5.84568
	1863.06	35.2594	5.93796
	1864.96	35.997	5.99975
	1866.86	36.2872	6.02389
	1868.76	36.3971	6.033
	1870.66	36.3794	6.03153
	1872.56	36.1299	6.01081
	1874.47	35.6968	5.97468
	1876.37	35.2835	5.94
	1878.27	34.662	5.88745
	1880.17	33.8891	5.82143
	1882.07	32.5496	5.70523
	1883.97	30.7981	5.5496
	1885.87	28.0218	5.29356
	1887.77	25.6699	5.06655
	1889.67	22.9135	4.7868
	1891.57	20.4006	4.51671
	1893.47	17.3151	4.16115
	1895.37	14.5323	3.81213
	1897.27	11.8991	3.44951
	1899.17	9.9203	3.14965
	1901.07	8.08721	2.8438
	1902.97	6.63838	2.57651
	1904.87	5.38845	2.3213
	1906.77	4.32217	2.07898
	1908.67	3.54714	1.88339
	1910.57	2.99614	1.73094
	1912.47	2.62127	1.61903
	1914.37	2.45162	1.56577
	1916.27	2.11715	1.45504
	1918.17	1.62382	1.27429
	1920.07	1.15521	1.07481
	1921.97	0.901448	0.949446
	1923.87	0.823016	0.907203
	1925.77	0.804328	0.896843
	1927.67	0.637883	0.798676
	1929.57	0.347116	0.589165
	1931.48	0.0589922	0.242883
	1933.38	-0.17461	0.417863
	1935.28	-0.140073	0.374263
	1937.18	-0.0118654	0.108928
	1939.08	0.211743	0.460155
	1940.98	0.249416	0.499416
	1942.88	0.288827	0.537426
	1944.78	0.217815	0.466707
	1946.68	0.139594	0.373623
	1948.58	-0.0878628	0.296417
	1950.48	-0.211383	0.459764
	1952.38	-0.370749	0.608891
	1954.28	-0.2382	0.488057
	1956.18	0.0522304	0.22854
	1958.08	0.269083	0.518732
	1959.98	0.223516	0.472775
	1961.88	0.294408	0.542594
	1963.78	0.358215	0.598511
	1965.68	0.360705	0.600588
	1967.58	0.328325	0.572997
	1969.48	0.0939816	0.306564
	1971.38	0.0639274	0.252839
	1973.28	0.153273	0.3915
	1975.18	0.291553	0.539956
	1977.08	0.240425	0.490331
	1978.98	0.0450264	0.212194
	1980.88	0.118954	0.344898
	1982.78	-0.106341	0.326099
	1984.68	-0.0398957	0.199739
	1986.58	0.0892181	0.298694
	1988.48	0.140639	0.375019
	1990.39	0.100279	0.316669
	1992.29	0.190174	0.436089
	1994.19	0.460689	0.678741
	1996.09	0.635071	0.796914
	1997.99	0.738716	0.859486
	1999.89	0.904575	0.951092
	2001.79	0.907352	0.95255
	2003.69	1.0175	1.00871
	2005.59	1.07239	1.03556
	2007.49	0.988182	0.994074
	2009.39	0.802592	0.895875
	2011.29	0.818075	0.904475
	2013.19	0.674633	0.821361
	2015.09	0.591352	0.768994
	2016.99	0.522938	0.723145
	2018.89	0.678331	0.823608
	2020.79	0.52747	0.726271
	2022.69	0.333946	0.577881
	2024.59	0.104164	0.322744
	2026.49	0.172729	0.415607
	2028.39	0.0663819	0.257647
	2030.29	0.028691	0.169384
	2032.19	0.1118	0.334365
	2034.09	0.20597	0.453839
	2035.99	-0.0608862	0.246751
	2037.89	-0.0734821	0.271076
	2039.79	0.130488	0.361231
	2041.69	0.311425	0.558054
	2043.59	0.302651	0.550137
	2045.49	0.249967	0.499967
	2047.39	0.0777261	0.278794
	2049.3	-0.12074	0.347476
	2051.2	-0.0676131	0.260025
	2053.1	-0.0132999	0.115325
	2055	0.234785	0.484546
	2056.9	0.370192	0.608434
	2058.8	0.412751	0.642457
	2060.7	0.493164	0.702257
	2062.6	0.442061	0.664877
	2064.5	0.558785	0.747519
	2066.4	0.52581	0.725128
	2068.3	0.671236	0.81929
	2070.2	0.785705	0.8864
	2072.1	1.08545	1.04185
	2074	1.15655	1.07543
	2075.9	1.27268	1.12813
	2077.8	1.33498	1.15541
	2079.7	1.44705	1.20294
	2081.6	1.63065	1.27697
	2083.5	1.66518	1.29042
	2085.4	1.67013	1.29233
	2087.3	1.51486	1.2308
	2089.2	1.4497	1.20403
	2091.1	1.58908	1.26059
	2093	1.81732	1.34808
	2094.9	1.77322	1.33162
	2096.8	1.89338	1.376
	2098.7	1.87124	1.36793
	2100.6	1.62797	1.27592
	2102.5	1.64753	1.28356
	2104.4	1.71522	1.30966
	2106.31	1.91868	1.38516
	2108.21	1.93371	1.39058
	2110.11	2.034	1.42618
	2112.01	1.89138	1.37527
	2113.91	1.81678	1.34788
	2115.81	1.81101	1.34574
	2117.71	1.71043	1.30783
	2119.61	1.71007	1.3077
	2121.51	1.56866	1.25246
	2123.41	1.55973	1.24889
	2125.31	1.59453	1.26275
	2127.21	1.73488	1.31715
	2129.11	1.4418	1.20075
	2131.01	0.735608	0.857676
	2132.91	0.0981435	0.313279
	2134.81	0.0508806	0.225567
	2136.71	0.0811981	0.284953
	2138.61	0.195582	0.442247
	2140.51	0.182967	0.427746
	2142.41	0.134929	0.367326
	2144.31	0.0457954	0.213999
	2146.21	-0.0274755	0.165757
	2148.11	-0.044273	0.210411
	2150.01	-0.0311664	0.17654
	2151.91	0.0495189	0.222528
	2153.81	0.289085	0.537666
	2155.71	0.292907	0.541209
	2157.61	0.246763	0.496753
	2159.51	0.0588245	0.242538
	2161.41	-0.0283837	0.168474
	2163.31	-0.0513636	0.226635
	2165.22	-0.143588	0.378931
	2167.12	0.0384089	0.195982
	2169.02	0.302516	0.550015
	2170.92	0.229692	0.479262
	2172.82	0.207104	0.455087
	2174.72	0.0658515	0.256615
	2176.62	0.187233	0.432704
	2178.52	0.119182	0.345227
	2180.42	0.205955	0.453822
	2182.32	0.142165	0.377047
	2184.22	0.00382795	0.0618704
	2186.12	-0.276022	0.525378
	2188.02	-0.36401	0.603333
	2189.92	-0.0608477	0.246673
	2191.82	0.10209	0.319516
	2193.72	0.306168	0.553325
	2195.62	0.184277	0.429275
	2197.52	0.0260687	0.161458
	2199.42	-0.13724	0.37046
	2201.32	-0.232409	0.482089
	2203.22	0.147295	0.383791
