Generated file C:/Users/didvk/Downloads/Dioptas_Win64_0.5.0/1_mask&dat&fxye_1position/24_ReMoB2_950psi_noRuby_S_P1_C1_D1w_151.fxye using DIOPTAS
# == pyFAI calibration ==
# Distance Sample to Detector: 0.21643023575112377 m
# PONI: 8.848e-02, 8.638e-02 m
# Rotations: 0.008179 -0.001145 -0.000000 rad
# 
# == Fit2d calibration ==
# Distance Sample-beamCenter: 216.438 mm
# Center: x=491.896, y=512.970 pix
# Tilt: 0.473 deg  TiltPlanRot: -172.032 deg
# 
# Detector Pilatus CdTe 1M	 PixelSize= 1.720e-04, 1.720e-04 m
#    Detector has a mask: True 
#    Detector has a dark current: False 
#    detector has a flat field: False 
# 
# Wavelength: 4.133e-11 m
# Mask applied: None
# Dark current applied: None
# Flat field applied: None
# Polarization factor: None
# Normalization factor: None
BANK	1	1006	1006 CONS	293.393	1.90033 0.4133 0.0 FXYE
	293.393	0.491961	0.701399
	295.294	0.488753	0.699109
	297.194	0.753856	0.868249
	299.094	1.58342	1.25834
	300.995	1.67487	1.29417
	302.895	1.77475	1.3322
	304.795	1.46613	1.21084
	306.696	1.51543	1.23103
	308.596	1.17016	1.08174
	310.496	1.18624	1.08915
	312.397	0.782497	0.884589
	314.297	1.38393	1.17641
	316.197	1.66672	1.29102
	318.098	1.61374	1.27033
	319.998	1.18311	1.08771
	321.898	1.17566	1.08428
	323.799	1.13439	1.06508
	325.699	1.43319	1.19716
	327.599	1.50029	1.22486
	329.5	1.53073	1.23723
	331.4	1.74022	1.31917
	333.3	2.01043	1.4179
	335.201	1.74998	1.32287
	337.101	1.98591	1.40922
	339.001	2.09471	1.44731
	340.902	2.0057	1.41623
	342.802	1.56508	1.25103
	344.702	1.18414	1.08818
	346.603	1.71954	1.31131
	348.503	2.73306	1.6532
	350.403	3.57294	1.89022
	352.304	3.75205	1.93702
	354.204	4.28562	2.07017
	356.104	5.30487	2.30323
	358.005	7.27211	2.69668
	359.905	9.5692	3.09341
	361.805	12.1553	3.48644
	363.706	13.0725	3.61559
	365.606	11.9634	3.45881
	367.506	9.23906	3.03958
	369.407	6.57739	2.56464
	371.307	5.09789	2.25785
	373.207	4.44498	2.10831
	375.108	3.93303	1.98319
	377.008	3.36052	1.83317
	378.908	3.32432	1.82327
	380.808	2.37057	1.53966
	382.709	1.80608	1.3439
	384.609	1.36825	1.16972
	386.509	1.46502	1.21038
	388.41	1.33043	1.15344
	390.31	1.16499	1.07935
	392.21	1.45192	1.20496
	394.111	1.70948	1.30747
	396.011	1.62239	1.27373
	397.911	1.91959	1.38549
	399.812	2.25772	1.50257
	401.712	2.59986	1.61241
	403.612	2.11972	1.45593
	405.513	1.48999	1.22065
	407.413	1.20965	1.09984
	409.313	0.829992	0.911039
	411.214	0.278158	0.527407
	413.114	-0.153703	0.392049
	415.014	0.34371	0.586268
	416.915	1.32439	1.15082
	418.815	1.81614	1.34764
	420.715	1.8825	1.37204
	422.616	1.35345	1.16338
	424.516	1.1803	1.08641
	426.416	0.88258	0.939457
	428.317	1.19122	1.09143
	430.217	0.997129	0.998563
	432.117	0.655993	0.809934
	434.018	0.474638	0.688939
	435.918	0.666798	0.816577
	437.818	1.65717	1.28731
	439.719	1.95381	1.39779
	441.619	1.49686	1.22346
	443.519	0.8621	0.928493
	445.42	0.318902	0.564714
	447.32	0.361601	0.601332
	449.22	0.663225	0.814387
	451.121	1.0965	1.04714
	453.021	0.858578	0.926595
	454.921	1.1332	1.06452
	456.822	0.670446	0.818808
	458.722	0.559914	0.748274
	460.622	-0.011288	0.106245
	462.523	0.478248	0.691555
	464.423	1.08248	1.04042
	466.323	1.63439	1.27843
	468.224	1.66644	1.29091
	470.124	1.86169	1.36444
	472.024	1.57573	1.25528
	473.924	0.68611	0.828317
	475.825	0.463334	0.680686
	477.725	0.13517	0.367654
	479.625	0.491994	0.701423
	481.526	-0.00166646	0.0408223
	483.426	0.0380038	0.194946
	485.326	-0.222988	0.472216
	487.227	0.106326	0.326077
	489.127	0.400692	0.633002
	491.027	0.645206	0.803247
	492.928	0.745592	0.863476
	494.828	1.50556	1.22701
	496.728	1.55489	1.24695
	498.629	1.72176	1.31216
	500.529	1.28215	1.13232
	502.429	1.01971	1.00981
	504.33	0.678069	0.82345
	506.23	0.797374	0.892958
	508.13	1.19919	1.09507
	510.031	1.3009	1.14057
	511.931	0.924295	0.961403
	513.831	0.923324	0.960898
	515.732	0.586486	0.765824
	517.632	0.220514	0.46959
	519.532	-0.205821	0.453675
	521.433	0.254864	0.504841
	523.333	1.02601	1.01292
	525.233	1.37985	1.17467
	527.134	1.28426	1.13325
	529.034	0.639921	0.799951
	530.934	0.119747	0.346044
	532.835	0.293772	0.542007
	534.735	0.148511	0.385372
	536.635	0.223825	0.473101
	538.536	0.0845155	0.290715
	540.436	0.572135	0.756396
	542.336	0.862304	0.928603
	544.237	0.980079	0.989989
	546.137	0.288818	0.537417
	548.037	0.322795	0.568151
	549.938	0.391114	0.625391
	551.838	0.757102	0.870116
	553.738	0.687415	0.829105
	555.639	0.666097	0.816148
	557.539	0.409411	0.639852
	559.439	0.295444	0.543547
	561.34	0.287409	0.536106
	563.24	0.528143	0.726734
	565.14	0.745227	0.863265
	567.041	0.803477	0.896369
	568.941	0.660928	0.812975
	570.841	0.344749	0.587153
	572.741	0.285887	0.534684
	574.642	0.208885	0.45704
	576.542	0.0179924	0.134136
	578.442	0.0228838	0.151274
	580.343	0.143734	0.379123
	582.243	0.079913	0.282689
	584.143	0.0472563	0.217385
	586.044	-0.154051	0.392493
	587.944	-0.169841	0.412117
	589.844	0.0159614	0.126338
	591.745	0.0790636	0.281183
	593.645	0.604732	0.777645
	595.545	1.32205	1.1498
	597.446	1.78905	1.33755
	599.346	1.96176	1.40063
	601.246	1.83638	1.35513
	603.147	1.91645	1.38436
	605.047	1.79917	1.34133
	606.947	1.23664	1.11204
	608.848	1.04604	1.02276
	610.748	1.18775	1.08984
	612.648	1.28501	1.13358
	614.549	0.999645	0.999822
	616.449	0.412283	0.642093
	618.349	0.19547	0.44212
	620.25	0.232319	0.481994
	622.15	-0.0165302	0.12857
	624.05	0.511481	0.715179
	625.951	0.763147	0.873583
	627.851	0.919329	0.958816
	629.751	0.549557	0.741321
	631.652	0.403342	0.635092
	633.552	0.229766	0.479339
	635.452	0.174965	0.418289
	637.353	0.084482	0.290658
	639.253	0.215908	0.464659
	641.153	0.528877	0.727239
	643.054	0.706719	0.840666
	644.954	0.702822	0.838345
	646.854	0.271183	0.520753
	648.755	-0.100278	0.316668
	650.655	-0.159743	0.399679
	652.555	-0.0626524	0.250305
	654.456	0.38578	0.621112
	656.356	0.260283	0.51018
	658.256	0.575374	0.758534
	660.157	1.48672	1.21931
	662.057	2.93056	1.71189
	663.957	4.71661	2.17178
	665.857	5.96083	2.44148
	667.758	6.10274	2.47037
	669.658	5.12138	2.26305
	671.558	3.57467	1.89068
	673.459	2.52985	1.59055
	675.359	1.38594	1.17726
	677.259	0.469827	0.685439
	679.16	0.0407766	0.201932
	681.06	0.235103	0.484874
	682.96	0.385233	0.620672
	684.861	0.68832	0.829651
	686.761	0.517795	0.71958
	688.661	0.681138	0.825311
	690.562	0.360029	0.600024
	692.462	0.189366	0.435162
	694.362	0.243056	0.493007
	696.263	0.948113	0.973711
	698.163	1.76958	1.33026
	700.063	3.01804	1.73725
	701.964	4.7033	2.16871
	703.864	6.97542	2.6411
	705.764	8.51931	2.91879
	707.665	9.66192	3.10836
	709.565	10.5909	3.25436
	711.465	11.7416	3.4266
	713.366	13.3291	3.6509
	715.266	14.7862	3.84528
	717.166	17.3666	4.16732
	719.067	20.749	4.55511
	720.967	26.5112	5.1489
	722.867	33.3367	5.7738
	724.768	40.4671	6.36138
	726.668	46.7194	6.83516
	728.568	49.533	7.03797
	730.469	48.5492	6.96773
	732.369	44.8412	6.69636
	734.269	40.0609	6.32937
	736.17	34.4712	5.87122
	738.07	29.3014	5.41307
	739.97	24.2982	4.92932
	741.871	20.3535	4.51148
	743.771	17.1841	4.14537
	745.671	14.5251	3.81117
	747.572	12.3923	3.52027
	749.472	10.99	3.31512
	751.372	10.223	3.19735
	753.273	8.99366	2.99894
	755.173	8.29144	2.87949
	757.073	7.61741	2.75997
	758.973	7.25499	2.69351
	760.874	6.68835	2.58618
	762.774	6.44924	2.53954
	764.674	6.30288	2.51055
	766.575	6.17628	2.48521
	768.475	5.97122	2.44361
	770.375	5.66607	2.38035
	772.276	5.62558	2.37183
	774.176	5.66393	2.3799
	776.076	5.61814	2.37026
	777.977	5.53745	2.35318
	779.877	5.35561	2.31422
	781.777	4.94983	2.22482
	783.678	4.56617	2.13686
	785.578	4.12432	2.03084
	787.478	3.95333	1.9883
	789.379	3.62212	1.90319
	791.279	3.65346	1.9114
	793.179	3.30224	1.81721
	795.08	2.66994	1.634
	796.98	2.23628	1.49542
	798.88	1.92571	1.3877
	800.781	1.53479	1.23887
	802.681	0.926166	0.962375
	804.581	0.344466	0.586912
	806.482	0.172523	0.415359
	808.382	0.314536	0.560835
	810.282	0.478599	0.691809
	812.183	0.402965	0.634795
	814.083	0.446927	0.668526
	815.983	0.277653	0.526928
	817.884	0.18826	0.433889
	819.784	0.489794	0.699853
	821.684	0.75271	0.867589
	823.585	0.789248	0.888396
	825.485	0.363503	0.602912
	827.385	0.108392	0.329229
	829.286	0.351993	0.59329
	831.186	0.707608	0.841194
	833.086	0.638031	0.798768
	834.987	0.670063	0.818574
	836.887	0.562004	0.749669
	838.787	0.227425	0.476891
	840.688	-0.14923	0.386303
	842.588	-0.163367	0.404186
	844.488	0.204034	0.451702
	846.389	0.644035	0.802518
	848.289	0.984064	0.992
	850.189	0.933051	0.965946
	852.089	0.774052	0.879802
	853.99	0.566013	0.752338
	855.89	0.248237	0.498233
	857.79	0.0548678	0.234239
	859.691	-0.216461	0.465254
	861.591	-0.418344	0.646795
	863.491	-0.297884	0.545787
	865.392	-0.106125	0.325768
	867.292	0.0943405	0.307149
	869.192	-0.0370742	0.192547
	871.093	-0.00614239	0.0783734
	872.993	-0.122086	0.349408
	874.893	-0.181566	0.426106
	876.794	-0.205304	0.453105
	878.694	-0.152451	0.39045
	880.594	0.0451077	0.212386
	882.495	0.00814381	0.090243
	884.395	-0.114406	0.33824
	886.295	0.0165455	0.128629
	888.196	0.0942252	0.306961
	890.096	0.101253	0.318202
	891.996	0.0806382	0.283969
	893.897	0.0939114	0.30645
	895.797	-0.00379287	0.0615863
	897.697	0.193453	0.439832
	899.598	0.0958737	0.309635
	901.498	0.170394	0.412788
	903.398	-0.171883	0.414587
	905.299	-0.0901226	0.300204
	907.199	0.20606	0.453938
	909.099	0.248304	0.498301
	911	0.147686	0.3843
	912.9	0.0266793	0.163338
	914.8	0.368198	0.606793
	916.701	0.652152	0.807559
	918.601	1.00568	1.00284
	920.501	1.10846	1.05284
	922.402	1.50719	1.22768
	924.302	2.36257	1.53707
	926.202	2.86655	1.69309
	928.103	3.45175	1.85789
	930.003	4.33885	2.08299
	931.903	5.86846	2.42249
	933.804	7.61936	2.76032
	935.704	9.39888	3.06576
	937.604	11.8986	3.44944
	939.505	14.7169	3.83627
	941.405	18.3302	4.28138
	943.305	22.6599	4.76025
	945.206	28.1376	5.30449
	947.106	35.7383	5.97815
	949.006	45.612	6.75367
	950.906	59.5172	7.71474
	952.807	76.9573	8.77253
	954.707	101.967	10.0979
	956.607	133.531	11.5556
	958.508	170.743	13.0669
	960.408	210.889	14.522
	962.308	247.141	15.7207
	964.209	276.463	16.6272
	966.109	292.021	17.0886
	968.009	294.961	17.1744
	969.91	287.659	16.9605
	971.81	274.326	16.5628
	973.71	258.279	16.0711
	975.611	240.3	15.5016
	977.511	222.331	14.9108
	979.411	204.634	14.305
	981.312	188.186	13.7181
	983.212	173.04	13.1545
	985.112	160.343	12.6626
	987.013	148.383	12.1813
	988.913	137.667	11.7331
	990.813	126.744	11.2581
	992.714	117.396	10.8349
	994.614	108.926	10.4368
	996.514	102.183	10.1086
	998.415	97.312	9.86468
	1000.31	92.5323	9.61937
	1002.22	88.7545	9.42096
	1004.12	85.7432	9.25976
	1006.02	83.2441	9.12382
	1007.92	80.1355	8.95184
	1009.82	76.4889	8.74579
	1011.72	72.4189	8.50993
	1013.62	68.4147	8.27132
	1015.52	64.0444	8.00277
	1017.42	58.5582	7.65233
	1019.32	53.051	7.28361
	1021.22	47.579	6.89775
	1023.12	42.277	6.50208
	1025.02	37.3006	6.10743
	1026.92	32.8685	5.7331
	1028.82	28.4934	5.33792
	1030.72	24.7614	4.97608
	1032.62	21.4061	4.62667
	1034.52	18.3774	4.28689
	1036.42	15.4612	3.93207
	1038.32	13.2148	3.63522
	1040.22	10.5817	3.25296
	1042.12	8.61214	2.93465
	1044.02	6.76226	2.60043
	1045.92	5.47175	2.33918
	1047.82	4.06694	2.01667
	1049.72	2.91134	1.70626
	1051.62	1.90698	1.38093
	1053.52	0.920779	0.959572
	1055.42	0.33574	0.579431
	1057.32	-0.269481	0.519115
	1059.23	-0.322392	0.567796
	1061.13	-0.38429	0.619911
	1063.03	-0.641207	0.800754
	1064.93	-0.876678	0.936311
	1066.83	-1.23896	1.11309
	1068.73	-0.770123	0.877567
	1070.63	-0.392307	0.626344
	1072.53	0.474103	0.688551
	1074.43	1.34605	1.1602
	1076.33	2.23263	1.4942
	1078.23	2.86127	1.69153
	1080.13	3.36783	1.83517
	1082.03	4.08795	2.02187
	1083.93	4.59074	2.1426
	1085.83	4.88502	2.21021
	1087.73	5.22181	2.28513
	1089.63	4.90793	2.21538
	1091.53	4.65656	2.15791
	1093.43	4.26244	2.06457
	1095.33	3.79192	1.94729
	1097.23	3.543	1.88229
	1099.13	3.07574	1.75378
	1101.03	2.78502	1.66884
	1102.93	2.14976	1.46621
	1104.83	1.10737	1.05231
	1106.73	0.270256	0.519862
	1108.63	-0.0558418	0.236309
	1110.53	-0.0198354	0.140838
	1112.43	0.426532	0.653095
	1114.33	1.09255	1.04525
	1116.23	1.61066	1.26912
	1118.14	1.2831	1.13274
	1120.04	0.871316	0.933443
	1121.94	1.08283	1.04059
	1123.84	1.68091	1.2965
	1125.74	2.05973	1.43518
	1127.64	2.217	1.48896
	1129.54	2.16583	1.47168
	1131.44	2.09413	1.44711
	1133.34	1.95601	1.39858
	1135.24	1.98807	1.40999
	1137.14	1.96226	1.40081
	1139.04	2.20894	1.48625
	1140.94	2.53034	1.5907
	1142.84	2.65001	1.62789
	1144.74	2.80377	1.67445
	1146.64	3.03495	1.74211
	1148.54	3.07985	1.75495
	1150.44	2.69278	1.64097
	1152.34	2.43945	1.56187
	1154.24	2.66771	1.63331
	1156.14	2.74371	1.65642
	1158.04	2.73072	1.65249
	1159.94	2.40933	1.5522
	1161.84	2.18318	1.47756
	1163.74	2.10392	1.45049
	1165.64	2.12301	1.45706
	1167.54	1.9431	1.39395
	1169.44	1.8773	1.37014
	1171.34	1.75597	1.32513
	1173.24	1.83532	1.35474
	1175.15	1.71065	1.30792
	1177.05	0.986632	0.993293
	1178.95	0.234045	0.483782
	1180.85	-0.290988	0.539433
	1182.75	-0.00820126	0.0905608
	1184.65	0.0791552	0.281345
	1186.55	-0.0252472	0.158894
	1188.45	-0.441153	0.664193
	1190.35	-0.407431	0.638303
	1192.25	-0.601718	0.775705
	1194.15	-0.594455	0.771009
	1196.05	-0.465756	0.682463
	1197.95	-0.523711	0.723679
	1199.85	-0.480614	0.693264
	1201.75	-0.581886	0.762814
	1203.65	-0.335057	0.578841
	1205.55	0.0766661	0.276886
	1207.45	0.285658	0.53447
	1209.35	0.363684	0.603062
	1211.25	0.448971	0.670053
	1213.15	1.2553	1.1204
	1215.05	1.9972	1.41322
	1216.95	2.71236	1.64692
	1218.85	3.73835	1.93348
	1220.75	5.00078	2.23624
	1222.65	6.27792	2.50558
	1224.55	7.65816	2.76734
	1226.45	9.20195	3.03347
	1228.35	11.1449	3.3384
	1230.25	13.406	3.66142
	1232.15	16.0053	4.00066
	1234.06	19.1893	4.38056
	1235.96	23.4236	4.8398
	1237.86	29.0428	5.38914
	1239.76	35.6989	5.97485
	1241.66	44.4666	6.66833
	1243.56	55.0223	7.4177
	1245.46	69.9792	8.36536
	1247.36	89.1323	9.44099
	1249.26	111.947	10.5805
	1251.16	143.58	11.9825
	1253.06	180.035	13.4177
	1254.96	226.287	15.0429
	1256.86	277.19	16.649
	1258.76	333.001	18.2483
	1260.66	390.367	19.7577
	1262.56	440.661	20.9919
	1264.46	480.912	21.9297
	1266.36	505.155	22.4756
	1268.26	517.246	22.7431
	1270.16	511.078	22.607
	1272.06	494.033	22.2268
	1273.96	467.016	21.6105
	1275.86	429.107	20.7149
	1277.76	385.846	19.643
	1279.66	339.37	18.422
	1281.56	289.171	17.005
	1283.46	243.736	15.612
	1285.36	199.27	14.1163
	1287.26	160.652	12.6749
	1289.16	128.911	11.3539
	1291.06	101.764	10.0878
	1292.97	82.5848	9.08762
	1294.87	67.3737	8.20815
	1296.77	55.9858	7.48237
	1298.67	47.9249	6.92278
	1300.57	41.1215	6.41261
	1302.47	36.3064	6.02548
	1304.37	31.9575	5.6531
	1306.27	28.4957	5.33814
	1308.17	25.5616	5.05585
	1310.07	23.3528	4.83248
	1311.97	21.4757	4.63419
	1313.87	19.8548	4.45587
	1315.77	18.3456	4.28318
	1317.67	16.7151	4.08842
	1319.57	15.219	3.90115
	1321.47	13.9096	3.72956
	1323.37	12.7605	3.57219
	1325.27	11.6265	3.40977
	1327.17	11.0417	3.3229
	1329.07	10.2591	3.20299
	1330.97	9.75818	3.12381
	1332.87	8.97883	2.99647
	1334.77	8.17671	2.85949
	1336.67	7.04831	2.65487
	1338.57	6.23172	2.49634
	1340.47	5.4723	2.33929
	1342.37	4.93891	2.22237
	1344.27	4.56192	2.13586
	1346.17	3.94331	1.98578
	1348.07	3.03095	1.74096
	1349.98	2.60004	1.61246
	1351.88	2.20177	1.48384
	1353.78	2.04633	1.4305
	1355.68	2.19152	1.48038
	1357.58	2.48833	1.57744
	1359.48	2.7393	1.65508
	1361.38	2.65085	1.62814
	1363.28	2.47845	1.57431
	1365.18	1.90582	1.38051
	1367.08	1.67508	1.29425
	1368.98	1.60947	1.26865
	1370.88	1.9548	1.39814
	1372.78	2.23453	1.49483
	1374.68	2.39324	1.54701
	1376.58	2.702	1.64378
	1378.48	3.07332	1.75309
	1380.38	3.34947	1.83016
	1382.28	3.10048	1.76082
	1384.18	2.78723	1.6695
	1386.08	2.44602	1.56397
	1387.98	2.23922	1.4964
	1389.88	1.96867	1.40309
	1391.78	1.77531	1.33241
	1393.68	1.4496	1.20399
	1395.58	1.21459	1.10209
	1397.48	1.08525	1.04176
	1399.38	0.904035	0.950807
	1401.28	0.521478	0.722134
	1403.18	0.100213	0.316564
	1405.08	-0.0269528	0.164173
	1406.98	-0.155233	0.393997
	1408.89	-0.463815	0.68104
	1410.79	-0.544066	0.737608
	1412.69	-0.357544	0.59795
	1414.59	-0.303529	0.550934
	1416.49	-0.289945	0.538466
	1418.39	-0.699501	0.836361
	1420.29	-0.749899	0.865967
	1422.19	-0.324559	0.5697
	1424.09	0.069976	0.26453
	1425.99	0.0374793	0.193596
	1427.89	0.0603252	0.245612
	1429.79	0.471304	0.686516
	1431.69	0.964031	0.981851
	1433.59	1.35265	1.16303
	1435.49	1.50427	1.22649
	1437.39	2.2288	1.49292
	1439.29	3.03269	1.74146
	1441.19	3.64472	1.90912
	1443.09	3.98264	1.99566
	1444.99	4.32619	2.07995
	1446.89	4.65279	2.15703
	1448.79	4.9668	2.22863
	1450.69	5.24101	2.28933
	1452.59	6.22992	2.49598
	1454.49	6.86632	2.62037
	1456.39	7.49131	2.73703
	1458.29	7.7076	2.77626
	1460.19	7.88307	2.80768
	1462.09	8.0953	2.84522
	1463.99	8.07215	2.84115
	1465.89	8.06789	2.8404
	1467.8	7.75266	2.78436
	1469.7	7.18409	2.68032
	1471.6	6.66847	2.58234
	1473.5	5.8864	2.42619
	1475.4	4.88546	2.21031
	1477.3	4.0869	2.02161
	1479.2	3.36996	1.83575
	1481.1	3.10968	1.76343
	1483	3.08975	1.75777
	1484.9	2.58694	1.6084
	1486.8	1.82686	1.35161
	1488.7	1.3302	1.15334
	1490.6	1.46932	1.21216
	1492.5	1.65467	1.28634
	1494.4	1.48791	1.2198
	1496.3	0.815352	0.902968
	1498.2	0.707544	0.841156
	1500.1	0.498682	0.706174
	1502	0.63089	0.794286
	1503.9	0.570356	0.755219
	1505.8	0.54138	0.735785
	1507.7	0.325154	0.570223
	1509.6	0.0186915	0.136717
	1511.5	-0.228859	0.478392
	1513.4	-0.299297	0.54708
	1515.3	-0.278887	0.528097
	1517.2	-0.468171	0.684231
	1519.1	-0.2633	0.513128
	1521	-0.0272731	0.165146
	1522.9	0.159224	0.399028
	1524.81	0.21457	0.463216
	1526.71	0.394897	0.628409
	1528.61	0.386228	0.621473
	1530.51	0.314225	0.560558
	1532.41	0.430718	0.656291
	1534.31	0.357939	0.59828
	1536.21	0.120521	0.347162
	1538.11	-0.0239761	0.154842
	1540.01	0.200729	0.448028
	1541.91	0.292436	0.540773
	1543.81	0.176528	0.420152
	1545.71	0.633972	0.796223
	1547.61	0.964892	0.982289
	1549.51	0.949906	0.974631
	1551.41	0.812053	0.90114
	1553.31	0.826508	0.909125
	1555.21	0.881888	0.939089
	1557.11	0.940019	0.969546
	1559.01	0.937787	0.968394
	1560.91	0.677401	0.823044
	1562.81	0.855409	0.924883
	1564.71	0.867252	0.931263
	1566.61	1.25317	1.11945
	1568.51	1.20325	1.09693
	1570.41	1.40784	1.18652
	1572.31	1.4033	1.18461
	1574.21	1.16715	1.08035
	1576.11	1.01526	1.0076
	1578.01	1.0212	1.01055
	1579.91	1.153	1.07378
	1581.81	0.821508	0.906371
	1583.72	0.889525	0.943146
	1585.62	0.910188	0.954038
	1587.52	0.945864	0.972555
	1589.42	0.667101	0.816762
	1591.32	0.846583	0.9201
	1593.22	0.660353	0.812621
	1595.12	0.735155	0.857412
	1597.02	0.487671	0.698334
	1598.92	0.411072	0.641149
	1600.82	0.295515	0.543613
	1602.72	0.510588	0.714555
	1604.62	0.512412	0.715829
	1606.52	0.046544	0.215741
	1608.42	-0.239209	0.48909
	1610.32	-0.09672	0.310998
	1612.22	0.100947	0.317722
	1614.12	0.173549	0.416592
	1616.02	0.344843	0.587233
	1617.92	0.485722	0.696938
	1619.82	0.335851	0.579527
	1621.72	0.239094	0.488973
	1623.62	0.111762	0.334309
	1625.52	0.438846	0.662454
	1627.42	0.591568	0.769135
	1629.32	1.00106	1.00053
	1631.22	1.34703	1.16062
	1633.12	1.49327	1.22199
	1635.02	1.69723	1.30278
	1636.92	2.02096	1.42161
	1638.82	2.58415	1.60753
	1640.73	2.94239	1.71534
	1642.63	3.45371	1.85842
	1644.53	4.05151	2.01284
	1646.43	4.70269	2.16857
	1648.33	5.38079	2.31965
	1650.23	6.19927	2.48983
	1652.13	7.19886	2.68307
	1654.03	8.50263	2.91593
	1655.93	9.48332	3.0795
	1657.83	10.9641	3.3112
	1659.73	12.9178	3.59413
	1661.63	15.0227	3.87591
	1663.53	16.8012	4.09893
	1665.43	18.4823	4.29911
	1667.33	20.4444	4.52154
	1669.23	22.8253	4.77759
	1671.13	24.7961	4.97957
	1673.03	26.6796	5.16523
	1674.93	27.9593	5.28765
	1676.83	29.0755	5.39217
	1678.73	29.8783	5.4661
	1680.63	30.5335	5.52571
	1682.53	31.0997	5.57671
	1684.43	31.1478	5.58103
	1686.33	30.615	5.53309
	1688.23	30.4655	5.51956
	1690.13	29.982	5.47558
	1692.03	29.5861	5.43931
	1693.93	28.5338	5.3417
	1695.83	28.037	5.29499
	1697.73	27.4536	5.23962
	1699.64	26.8904	5.18559
	1701.54	26.0033	5.09935
	1703.44	25.4495	5.04475
	1705.34	24.6119	4.96103
	1707.24	23.7469	4.87308
	1709.14	22.8122	4.77621
	1711.04	22.0449	4.6952
	1712.94	21.2188	4.60638
	1714.84	20.5042	4.52816
	1716.74	19.6632	4.43432
	1718.64	19.0313	4.36249
	1720.54	17.8069	4.21983
	1722.44	16.7516	4.09288
	1724.34	15.9825	3.99782
	1726.24	15.5404	3.94213
	1728.14	15.1368	3.89061
	1730.04	14.5147	3.80982
	1731.94	13.6018	3.68807
	1733.84	13.003	3.60597
	1735.74	12.2735	3.50336
	1737.64	11.7474	3.42745
	1739.54	11.1255	3.3355
	1741.44	10.479	3.23713
	1743.34	9.57646	3.09459
	1745.24	8.82498	2.97069
	1747.14	8.40254	2.89871
	1749.04	7.69035	2.77315
	1750.94	6.84616	2.61652
	1752.84	5.97403	2.44418
	1754.74	5.44935	2.33438
	1756.64	4.68258	2.16393
	1758.55	4.15389	2.03811
	1760.45	3.68162	1.91876
	1762.35	3.33785	1.82698
	1764.25	3.31231	1.81997
	1766.15	3.24402	1.80112
	1768.05	3.14561	1.77359
	1769.95	2.76592	1.66311
	1771.85	2.38742	1.54513
	1773.75	2.16004	1.46971
	1775.65	2.0552	1.4336
	1777.55	1.93004	1.38926
	1779.45	1.82427	1.35066
	1781.35	1.69507	1.30195
	1783.25	1.71879	1.31103
	1785.15	2.17763	1.47568
	1787.05	2.65233	1.6286
	1788.95	2.63459	1.62314
	1790.85	2.39096	1.54627
	1792.75	2.47813	1.57421
	1794.65	2.72388	1.65042
	1796.55	2.76816	1.66378
	1798.45	2.70258	1.64395
	1800.35	2.61475	1.61702
	1802.25	2.79656	1.67229
	1804.15	2.94405	1.71582
	1806.05	2.70546	1.64483
	1807.95	2.40996	1.5524
	1809.85	2.51057	1.58448
	1811.75	2.5308	1.59085
	1813.65	2.65458	1.62929
	1815.56	2.72488	1.65072
	1817.46	2.90129	1.70332
	1819.36	3.17994	1.78324
	1821.26	3.27706	1.81027
	1823.16	3.53235	1.87945
	1825.06	3.52163	1.8766
	1826.96	3.86235	1.96529
	1828.86	4.21701	2.05354
	1830.76	4.60074	2.14493
	1832.66	5.33862	2.31055
	1834.56	5.64764	2.37648
	1836.46	6.18765	2.4875
	1838.36	6.74699	2.5975
	1840.26	7.53769	2.74549
	1842.16	8.30853	2.88245
	1844.06	9.51502	3.08464
	1845.96	10.8707	3.29708
	1847.86	12.2575	3.50107
	1849.76	13.6568	3.69551
	1851.66	15.54	3.94209
	1853.56	17.3796	4.16888
	1855.46	19.2321	4.38545
	1857.36	21.4065	4.62671
	1859.26	23.6761	4.86581
	1861.16	25.8147	5.08081
	1863.06	27.6746	5.26066
	1864.96	29.4078	5.42289
	1866.86	30.6629	5.53741
	1868.76	32.1561	5.67063
	1870.66	33.3736	5.77699
	1872.56	33.9164	5.82378
	1874.47	34.1337	5.84241
	1876.37	34.0709	5.83703
	1878.27	33.9859	5.82974
	1880.17	33.7979	5.8136
	1882.07	33.3127	5.77171
	1883.97	32.3491	5.68763
	1885.87	30.6454	5.53583
	1887.77	29.0898	5.3935
	1889.67	27.5542	5.24921
	1891.57	25.8244	5.08177
	1893.47	23.592	4.85716
	1895.37	21.256	4.61042
	1897.27	18.8614	4.34297
	1899.17	16.3417	4.04249
	1901.07	13.8546	3.72217
	1902.97	11.6771	3.41718
	1904.87	9.62386	3.10223
	1906.77	7.75567	2.7849
	1908.67	6.35023	2.51997
	1910.57	5.28201	2.29826
	1912.47	4.10918	2.02711
	1914.37	3.13465	1.7705
	1916.27	2.49143	1.57843
	1918.17	2.31631	1.52194
	1920.07	1.96957	1.40341
	1921.97	1.86225	1.36464
	1923.87	1.85683	1.36266
	1925.77	2.31034	1.51998
	1927.67	2.36409	1.53756
	1929.57	2.07626	1.44092
	1931.48	1.51063	1.22908
	1933.38	1.08259	1.04048
	1935.28	0.706245	0.840384
	1937.18	0.430141	0.655851
	1939.08	0.197781	0.444726
	1940.98	0.0690172	0.262711
	1942.88	-0.0927825	0.304602
	1944.78	-0.193682	0.440093
	1946.68	-0.399792	0.632291
	1948.58	-0.358106	0.59842
	1950.48	-0.368249	0.606835
	1952.38	-0.314724	0.561002
	1954.28	-0.3504	0.591946
	1956.18	-0.140963	0.37545
	1958.08	-0.0324178	0.18005
	1959.98	0.135169	0.367653
	1961.88	0.309304	0.556151
	1963.78	0.476501	0.690291
	1965.68	0.520621	0.721541
	1967.58	0.551968	0.742946
	1969.48	0.557917	0.746939
	1971.38	0.435665	0.66005
	1973.28	0.213196	0.461732
	1975.18	0.225568	0.47494
	1977.08	0.316036	0.562171
	1978.98	0.413976	0.64341
	1980.88	0.302275	0.549796
	1982.78	0.31923	0.565005
	1984.68	0.25668	0.506636
	1986.58	0.141502	0.376168
	1988.48	-0.0243441	0.156026
	1990.39	-0.124462	0.352792
	1992.29	-0.163437	0.404273
	1994.19	-0.106254	0.325967
	1996.09	0.0955818	0.309163
	1997.99	0.0946673	0.307681
	1999.89	-0.0278488	0.16688
	2001.79	-0.00815744	0.0903185
	2003.69	0.197369	0.444262
	2005.59	0.294928	0.543073
	2007.49	0.328168	0.57286
	2009.39	0.211895	0.460321
	2011.29	0.17271	0.415584
	2013.19	0.000197927	0.0140687
	2015.09	0.156862	0.396058
	2016.99	0.00416129	0.0645081
	2018.89	0.121176	0.348103
	2020.79	0.168459	0.410438
	2022.69	0.169838	0.412114
	2024.59	-0.0415674	0.203881
	2026.49	-0.0618504	0.248697
	2028.39	0.125654	0.354477
	2030.29	0.253306	0.503295
	2032.19	0.251444	0.501442
	2034.09	0.0900754	0.300126
	2035.99	0.0502152	0.224088
	2037.89	0.0277268	0.166514
	2039.79	0.144576	0.380232
	2041.69	0.0671765	0.259184
	2043.59	0.107206	0.327424
	2045.49	0.184117	0.429088
	2047.39	0.266662	0.516393
	2049.3	0.18916	0.434925
	2051.2	-0.137789	0.371199
	2053.1	-0.161572	0.40196
	2055	0.0380437	0.195048
	2056.9	0.383296	0.619109
	2058.8	0.573668	0.757409
	2060.7	0.567914	0.7536
	2062.6	0.348509	0.590346
	2064.5	0.224744	0.474072
	2066.4	0.266602	0.516335
	2068.3	0.363439	0.602859
	2070.2	0.296682	0.544685
	2072.1	0.274816	0.524229
	2074	0.383168	0.619005
	2075.9	0.441955	0.664797
	2077.8	0.50828	0.712937
	2079.7	0.560062	0.748373
	2081.6	0.759492	0.871488
	2083.5	0.957649	0.978595
	2085.4	1.15959	1.07684
	2087.3	1.44829	1.20345
	2089.2	1.66014	1.28846
	2091.1	1.82154	1.34965
	2093	1.77424	1.33201
	2094.9	1.69124	1.30048
	2096.8	1.75659	1.32536
	2098.7	1.6886	1.29946
	2100.6	1.52464	1.23476
	2102.5	1.44214	1.20089
	2104.4	1.33173	1.154
	2106.31	1.31214	1.14549
	2108.21	1.52728	1.23583
	2110.11	1.61194	1.26962
	2112.01	1.66594	1.29071
	2113.91	1.77809	1.33345
	2115.81	1.85535	1.36211
	2117.71	1.85717	1.36278
	2119.61	1.68612	1.29851
	2121.51	1.64082	1.28095
	2123.41	1.79071	1.33817
	2125.31	1.70697	1.30651
	2127.21	1.65984	1.28835
	2129.11	1.65156	1.28513
	2131.01	1.21744	1.10338
	2132.91	0.502993	0.70922
	2134.81	0.123798	0.351849
	2136.71	0.246388	0.496375
	2138.61	0.493215	0.702293
	2140.51	0.38443	0.620024
	2142.41	0.228085	0.477583
	2144.31	0.0601089	0.245171
	2146.21	0.0619559	0.248909
	2148.11	0.087265	0.295407
	2150.01	0.0512646	0.226417
	2151.91	-0.218754	0.467712
	2153.81	-0.247744	0.497739
	2155.71	-0.055281	0.235119
	2157.61	0.226129	0.47553
	2159.51	0.374662	0.612097
	2161.41	0.391168	0.625434
	2163.31	0.12782	0.357519
	2165.22	0.178924	0.422994
	2167.12	0.317695	0.563644
	2169.02	0.45727	0.676217
	2170.92	0.473574	0.688167
	2172.82	0.283183	0.532149
	2174.72	0.275513	0.524894
	2176.62	0.189219	0.434993
	2178.52	-0.0012306	0.0350799
	2180.42	-0.100897	0.317643
	2182.32	-0.0690864	0.262843
	2184.22	-0.0941763	0.306882
	2186.12	-0.0396167	0.19904
	2188.02	-0.113114	0.336324
	2189.92	-0.0234242	0.15305
	2191.82	0.0867179	0.294479
	2193.72	0.159796	0.399745
	2195.62	0.087235	0.295356
	2197.52	-0.023546	0.153447
	2199.42	-0.0714659	0.267331
	2201.32	-0.115076	0.339228
	2203.22	0.0803237	0.283414
