Generated file C:/Users/didvk/Downloads/Dioptas_Win64_0.5.0/1_mask&dat&fxye_1position/25_ReMoB2_990psi_noRuby_S_P1_C1_D1w_157.fxye using DIOPTAS
# == pyFAI calibration ==
# Distance Sample to Detector: 0.21643023575112377 m
# PONI: 8.848e-02, 8.638e-02 m
# Rotations: 0.008179 -0.001145 -0.000000 rad
# 
# == Fit2d calibration ==
# Distance Sample-beamCenter: 216.438 mm
# Center: x=491.896, y=512.970 pix
# Tilt: 0.473 deg  TiltPlanRot: -172.032 deg
# 
# Detector Pilatus CdTe 1M	 PixelSize= 1.720e-04, 1.720e-04 m
#    Detector has a mask: True 
#    Detector has a dark current: False 
#    detector has a flat field: False 
# 
# Wavelength: 4.133e-11 m
# Mask applied: None
# Dark current applied: None
# Flat field applied: None
# Polarization factor: None
# Normalization factor: None
BANK	1	1006	1006 CONS	293.393	1.90033 0.4133 0.0 FXYE
	293.393	0.484003	0.695703
	295.294	0.120371	0.346945
	297.194	0.84791	0.92082
	299.094	1.37894	1.17428
	300.995	1.31103	1.145
	302.895	1.12811	1.06213
	304.795	1.39395	1.18066
	306.696	1.14483	1.06997
	308.596	1.39934	1.18294
	310.496	1.37517	1.17268
	312.397	1.63189	1.27745
	314.297	1.62388	1.27432
	316.197	1.67179	1.29298
	318.098	1.50946	1.2286
	319.998	1.07586	1.03724
	321.898	0.783331	0.88506
	323.799	0.731879	0.855499
	325.699	0.998701	0.99935
	327.599	1.23104	1.10952
	329.5	1.19968	1.0953
	331.4	1.75613	1.32519
	333.3	2.25297	1.50099
	335.201	2.52991	1.59057
	337.101	2.00456	1.41582
	339.001	0.938853	0.968944
	340.902	0.598399	0.773562
	342.802	1.33186	1.15406
	344.702	2.1178	1.45526
	346.603	2.54925	1.59664
	348.503	2.65642	1.62985
	350.403	2.81526	1.67787
	352.304	3.43511	1.85341
	354.204	4.02702	2.00674
	356.104	4.68476	2.16443
	358.005	6.34951	2.51982
	359.905	9.01356	3.00226
	361.805	11.938	3.45514
	363.706	13.4858	3.6723
	365.606	13.8192	3.71742
	367.506	11.5551	3.39929
	369.407	9.28549	3.04721
	371.307	6.42544	2.53484
	373.207	5.15301	2.27002
	375.108	4.1198	2.02973
	377.008	3.07925	1.75478
	378.908	1.88259	1.37208
	380.808	1.94916	1.39612
	382.709	1.62071	1.27307
	384.609	1.60479	1.2668
	386.509	0.67955	0.824348
	388.41	0.668992	0.81792
	390.31	0.794265	0.891215
	392.21	0.700157	0.836754
	394.111	0.68733	0.829054
	396.011	1.10658	1.05194
	397.911	1.62654	1.27536
	399.812	1.4517	1.20486
	401.712	1.09513	1.04649
	403.612	0.638221	0.798887
	405.513	0.599592	0.774333
	407.413	0.355356	0.596117
	409.313	0.684108	0.827108
	411.214	0.422471	0.649978
	413.114	0.287447	0.536141
	415.014	0.288006	0.536662
	416.915	0.0673901	0.259596
	418.815	0.0274723	0.165748
	420.715	0.00528863	0.0727229
	422.616	0.0823142	0.286905
	424.516	0.343494	0.586084
	426.416	0.592207	0.76955
	428.317	0.738238	0.859208
	430.217	1.03531	1.0175
	432.117	1.04447	1.022
	434.018	1.13603	1.06585
	435.918	1.27267	1.12813
	437.818	0.868507	0.931937
	439.719	0.566611	0.752736
	441.619	0.218013	0.466919
	443.519	0.677492	0.823099
	445.42	0.943687	0.971436
	447.32	0.835444	0.914026
	449.22	0.613584	0.783316
	451.121	0.38454	0.620113
	453.021	-0.00750848	0.0866515
	454.921	0.15681	0.395993
	456.822	0.230509	0.480113
	458.722	0.353261	0.594358
	460.622	0.495649	0.704023
	462.523	0.84295	0.918123
	464.423	0.610602	0.78141
	466.323	0.292197	0.540552
	468.224	-0.10194	0.31928
	470.124	-0.137384	0.370654
	472.024	0.542202	0.736344
	473.924	1.27401	1.12872
	475.825	1.03266	1.0162
	477.725	0.754868	0.868831
	479.625	0.607815	0.779625
	481.526	1.19789	1.09448
	483.426	1.08724	1.04271
	485.326	1.15027	1.07251
	487.227	1.04423	1.02188
	489.127	1.23038	1.10923
	491.027	1.26355	1.12408
	492.928	1.01265	1.0063
	494.828	0.936854	0.967912
	496.728	0.586971	0.76614
	498.629	0.789288	0.888419
	500.529	0.718733	0.847781
	502.429	0.692436	0.832128
	504.33	0.743388	0.862199
	506.23	1.12557	1.06093
	508.13	1.33023	1.15336
	510.031	1.43648	1.19853
	511.931	1.29359	1.13736
	513.831	0.724495	0.851173
	515.732	0.136276	0.369156
	517.632	0.252713	0.502706
	519.532	0.435125	0.65964
	521.433	1.0795	1.03899
	523.333	1.06771	1.0333
	525.233	1.27544	1.12935
	527.134	0.65925	0.811942
	529.034	0.170148	0.41249
	530.934	-0.148455	0.385299
	532.835	0.491331	0.70095
	534.735	0.653693	0.808513
	536.635	0.871293	0.933431
	538.536	0.929951	0.96434
	540.436	1.27376	1.12861
	542.336	1.18704	1.08951
	544.237	1.34559	1.15999
	546.137	0.964819	0.982252
	548.037	0.692457	0.83214
	549.938	0.310261	0.557011
	551.838	0.1318	0.363043
	553.738	0.0129402	0.113755
	555.639	0.402399	0.634349
	557.539	0.220427	0.469497
	559.439	0.623117	0.789378
	561.34	0.518397	0.719998
	563.24	0.887128	0.941875
	565.14	0.825635	0.908644
	567.041	0.813865	0.902145
	568.941	0.380006	0.616446
	570.841	0.197334	0.444223
	572.741	-0.0908771	0.301458
	574.642	0.164704	0.405837
	576.542	0.365959	0.604946
	578.442	0.455978	0.675261
	580.343	0.278313	0.527554
	582.243	0.507868	0.712648
	584.143	0.584494	0.764522
	586.044	0.526633	0.725695
	587.944	0.26807	0.517755
	589.844	0.510915	0.714783
	591.745	0.456661	0.675767
	593.645	0.468737	0.684644
	595.545	0.604922	0.777767
	597.446	1.00511	1.00255
	599.346	1.43361	1.19733
	601.246	1.39352	1.18047
	603.147	1.28226	1.13237
	605.047	1.60847	1.26826
	606.947	1.76853	1.32986
	608.848	1.537	1.23976
	610.748	1.13005	1.06304
	612.648	0.711839	0.843705
	614.549	0.301397	0.548996
	616.449	0.0998986	0.316067
	618.349	0.203262	0.450846
	620.25	0.284035	0.532949
	622.15	0.382703	0.61863
	624.05	0.456566	0.675697
	625.951	0.481496	0.693899
	627.851	0.525955	0.725228
	629.751	0.193475	0.439858
	631.652	0.236568	0.486383
	633.552	0.23767	0.487514
	635.452	0.316812	0.562861
	637.353	0.211677	0.460084
	639.253	0.40728	0.638185
	641.153	0.257656	0.507598
	643.054	0.208672	0.456807
	644.954	0.0716435	0.267663
	646.854	-0.140824	0.375266
	648.755	-0.286538	0.535292
	650.655	-0.0548276	0.234153
	652.555	0.641573	0.800983
	654.456	1.13231	1.0641
	656.356	1.20203	1.09637
	658.256	0.950277	0.974821
	660.157	1.58637	1.25951
	662.057	2.95545	1.71914
	663.957	4.60503	2.14593
	665.857	5.6182	2.37027
	667.758	5.50805	2.34692
	669.658	4.94261	2.2232
	671.558	4.16395	2.04058
	673.459	3.17397	1.78156
	675.359	1.94299	1.39391
	677.259	0.890436	0.943629
	679.16	0.409248	0.639725
	681.06	0.0657518	0.256421
	682.96	-0.111181	0.333438
	684.861	0.07055	0.265612
	686.761	0.361979	0.601647
	688.661	0.600645	0.775013
	690.562	0.85592	0.92516
	692.462	1.1997	1.09531
	694.362	0.981255	0.990583
	696.263	1.0648	1.03189
	698.163	1.85001	1.36015
	700.063	3.12308	1.76722
	701.964	4.86704	2.20614
	703.864	6.68309	2.58517
	705.764	9.04985	3.0083
	707.665	10.5237	3.24403
	709.565	12.1218	3.48163
	711.465	13.3073	3.64792
	713.366	14.7346	3.83857
	715.266	16.0502	4.00627
	717.166	18.1288	4.25779
	719.067	21.3648	4.6222
	720.967	26.4645	5.14436
	722.867	33.5242	5.79001
	724.768	42.1098	6.48921
	726.668	50.6041	7.11365
	728.568	55.5866	7.45564
	730.469	57.0026	7.55001
	732.369	55.7285	7.46515
	734.269	52.2555	7.2288
	736.17	46.9292	6.85049
	738.07	40.8944	6.39487
	739.97	34.5065	5.87423
	741.871	29.3249	5.41525
	743.771	25.0951	5.0095
	745.671	21.2959	4.61474
	747.572	18.3365	4.28211
	749.472	16.2125	4.02647
	751.372	14.7446	3.83986
	753.273	13.6055	3.68857
	755.173	12.568	3.54514
	757.073	11.3308	3.36613
	758.973	10.6641	3.26559
	760.874	9.95591	3.1553
	762.774	9.41467	3.06833
	764.674	8.87192	2.97858
	766.575	8.66282	2.94327
	768.475	8.41512	2.90088
	770.375	8.12368	2.85021
	772.276	7.73499	2.78118
	774.176	7.48514	2.7359
	776.076	7.28996	2.69999
	777.977	7.23845	2.69044
	779.877	6.99906	2.64557
	781.777	6.32993	2.51594
	783.678	6.02275	2.45413
	785.578	5.94338	2.43791
	787.478	6.5443	2.55818
	789.379	6.6928	2.58704
	791.279	6.19302	2.48858
	793.179	5.37192	2.31774
	795.08	4.58756	2.14186
	796.98	4.02762	2.00689
	798.88	3.39716	1.84314
	800.781	2.56875	1.60273
	802.681	2.41483	1.55397
	804.581	1.76909	1.33007
	806.482	1.76728	1.32939
	808.382	0.999748	0.999874
	810.282	0.952414	0.975917
	812.183	0.480269	0.693014
	814.083	0.474196	0.688619
	815.983	0.245931	0.495914
	817.884	0.47784	0.69126
	819.784	0.149386	0.386504
	821.684	0.140457	0.374776
	823.585	0.344016	0.586529
	825.485	0.456245	0.675459
	827.385	0.364872	0.604047
	829.286	0.20641	0.454324
	831.186	0.227256	0.476714
	833.086	0.306585	0.553701
	834.987	0.499822	0.706981
	836.887	0.189967	0.435852
	838.787	0.0615485	0.24809
	840.688	0.341973	0.584785
	842.588	0.799636	0.894224
	844.488	0.944876	0.972047
	846.389	1.10295	1.05021
	848.289	0.700461	0.836935
	850.189	0.446202	0.667984
	852.089	0.0114298	0.10691
	853.99	0.104587	0.3234
	855.89	0.0940934	0.306746
	857.79	-0.149146	0.386194
	859.691	-0.494202	0.702995
	861.591	-0.540386	0.735109
	863.491	-0.332693	0.576795
	865.392	-0.00746258	0.0863862
	867.292	0.0786068	0.280369
	869.192	0.237129	0.486959
	871.093	0.170103	0.412435
	872.993	0.0844158	0.290544
	874.893	0.257284	0.507232
	876.794	0.521576	0.722202
	878.694	0.238325	0.488185
	880.594	-0.102895	0.320772
	882.495	-0.42494	0.651874
	884.395	-0.144263	0.37982
	886.295	-0.00843537	0.0918443
	888.196	-0.228837	0.478369
	890.096	-0.378578	0.615287
	891.996	-0.219264	0.468256
	893.897	-0.122827	0.350466
	895.797	-0.103932	0.322384
	897.697	0.160429	0.400535
	899.598	0.590075	0.768163
	901.498	0.649718	0.806051
	903.398	0.487735	0.69838
	905.299	0.434831	0.659417
	907.199	0.458581	0.677186
	909.099	0.254177	0.50416
	911	0.185711	0.430942
	912.9	0.0648809	0.254717
	914.8	0.293916	0.54214
	916.701	0.694058	0.833101
	918.601	1.16108	1.07753
	920.501	1.2381	1.1127
	922.402	1.09254	1.04524
	924.302	1.28069	1.13168
	926.202	1.75093	1.32323
	928.103	2.60988	1.61551
	930.003	3.7749	1.94291
	931.903	5.44277	2.33297
	933.804	6.5965	2.56837
	935.704	7.74195	2.78244
	937.604	9.13333	3.02214
	939.505	11.1743	3.3428
	941.405	13.5558	3.68183
	943.305	16.8447	4.10423
	945.206	20.9185	4.57368
	947.106	26.8641	5.18306
	949.006	33.9815	5.82937
	950.906	43.9265	6.6277
	952.807	55.624	7.45815
	954.707	73.0168	8.54499
	956.607	95.6386	9.7795
	958.508	124.617	11.1632
	960.408	158.31	12.5821
	962.308	193.327	13.9042
	964.209	229.725	15.1567
	966.109	254.053	15.9391
	968.009	272.103	16.4956
	969.91	275.964	16.6121
	971.81	273.861	16.5487
	973.71	264.057	16.2498
	975.611	253.593	15.9246
	977.511	238.763	15.452
	979.411	225.103	15.0034
	981.312	210.775	14.5181
	983.212	198.826	14.1006
	985.112	188.355	13.7243
	987.013	178.442	13.3582
	988.913	169.48	13.0184
	990.813	159.958	12.6475
	992.714	152.141	12.3345
	994.614	145.618	12.0672
	996.514	141.347	11.8889
	998.415	137.944	11.745
	1000.31	134.794	11.6101
	1002.22	131.948	11.4869
	1004.12	130.582	11.4273
	1006.02	128.844	11.3509
	1007.92	126.236	11.2355
	1009.82	121.357	11.0162
	1011.72	115.724	10.7575
	1013.62	109.831	10.48
	1015.52	102.303	10.1145
	1017.42	94.1253	9.70182
	1019.32	85.8705	9.26663
	1021.22	77.2067	8.78674
	1023.12	68.4981	8.27636
	1025.02	59.3533	7.70411
	1026.92	51.493	7.17587
	1028.82	43.9847	6.63209
	1030.72	37.5986	6.13177
	1032.62	31.4469	5.60776
	1034.52	26.3402	5.13227
	1036.42	22.3267	4.72511
	1038.32	18.8243	4.3387
	1040.22	15.1462	3.89181
	1042.12	12.1313	3.48301
	1044.02	9.59029	3.09682
	1045.92	7.78002	2.78927
	1047.82	6.27242	2.50448
	1049.72	4.78924	2.18843
	1051.62	3.44258	1.85542
	1053.52	1.93566	1.39128
	1055.42	1.16587	1.07976
	1057.32	0.64499	0.803113
	1059.23	0.187577	0.433101
	1061.13	-0.390894	0.625215
	1063.03	-0.785779	0.886442
	1064.93	-1.00104	1.00052
	1066.83	-1.14929	1.07205
	1068.73	-0.985237	0.992591
	1070.63	-0.907971	0.952875
	1072.53	-0.846448	0.920026
	1074.43	-0.945538	0.972388
	1076.33	-0.535414	0.73172
	1078.23	0.190922	0.436947
	1080.13	0.42088	0.648753
	1082.03	0.913877	0.955969
	1083.93	1.46734	1.21134
	1085.83	2.22445	1.49146
	1087.73	2.62895	1.6214
	1089.63	2.9425	1.71537
	1091.53	3.27391	1.80939
	1093.43	3.36717	1.83498
	1095.33	3.38551	1.83997
	1097.23	3.57014	1.88948
	1099.13	3.6651	1.91444
	1101.03	3.4261	1.85097
	1102.93	3.06559	1.75088
	1104.83	2.23213	1.49403
	1106.73	1.77595	1.33265
	1108.63	1.39372	1.18056
	1110.53	1.31087	1.14493
	1112.43	1.37785	1.17382
	1114.33	1.34428	1.15943
	1116.23	1.32179	1.14969
	1118.14	0.950611	0.974993
	1120.04	1.27663	1.12988
	1121.94	1.78547	1.33622
	1123.84	1.86684	1.36632
	1125.74	1.71016	1.30773
	1127.64	1.53271	1.23802
	1129.54	1.94928	1.39616
	1131.44	2.3686	1.53903
	1133.34	2.41522	1.5541
	1135.24	2.47943	1.57462
	1137.14	2.69293	1.64102
	1139.04	2.69559	1.64182
	1140.94	2.58753	1.60858
	1142.84	2.59135	1.60977
	1144.74	2.68263	1.63787
	1146.64	2.69226	1.64081
	1148.54	3.05055	1.74658
	1150.44	3.32317	1.82296
	1152.34	4.14619	2.03622
	1154.24	4.34694	2.08493
	1156.14	4.59004	2.14244
	1158.04	4.60111	2.14502
	1159.94	4.69421	2.16661
	1161.84	4.77823	2.18592
	1163.74	4.72522	2.17376
	1165.64	4.46794	2.11375
	1167.54	4.47496	2.11541
	1169.44	3.99118	1.99779
	1171.34	3.37172	1.83622
	1173.24	2.91276	1.70668
	1175.15	2.91408	1.70707
	1177.05	2.65499	1.62942
	1178.95	2.19671	1.48213
	1180.85	1.68891	1.29958
	1182.75	1.47687	1.21527
	1184.65	1.18118	1.08682
	1186.55	0.751775	0.86705
	1188.45	0.490058	0.700042
	1190.35	-0.00495102	0.0703635
	1192.25	-0.222033	0.471204
	1194.15	-0.801397	0.895208
	1196.05	-0.991744	0.995864
	1197.95	-1.14984	1.0723
	1199.85	-0.65659	0.810303
	1201.75	-0.267538	0.51724
	1203.65	0.425455	0.652269
	1205.55	0.384111	0.619767
	1207.45	0.0227888	0.15096
	1209.35	-0.163726	0.404631
	1211.25	0.347986	0.589904
	1213.15	0.679714	0.824448
	1215.05	0.891772	0.944337
	1216.95	1.5532	1.24628
	1218.85	2.53796	1.5931
	1220.75	3.75163	1.93691
	1222.65	4.54024	2.13078
	1224.55	5.18402	2.27684
	1226.45	6.34068	2.51807
	1228.35	7.45827	2.73098
	1230.25	9.11498	3.0191
	1232.15	11.5449	3.39777
	1234.06	14.4338	3.79918
	1235.96	17.7751	4.21605
	1237.86	21.5142	4.63834
	1239.76	26.5727	5.15487
	1241.66	33.5719	5.79413
	1243.56	41.7064	6.45805
	1245.46	52.9059	7.27365
	1247.36	67.3164	8.20466
	1249.26	84.5334	9.1942
	1251.16	108.717	10.4268
	1253.06	136.289	11.6743
	1254.96	172.436	13.1315
	1256.86	213.029	14.5955
	1258.76	258.228	16.0695
	1260.66	307.448	17.5342
	1262.56	354.085	18.8171
	1264.46	397.852	19.9462
	1266.36	430.699	20.7533
	1268.26	451.644	21.2519
	1270.16	458.354	21.4092
	1272.06	452.018	21.2607
	1273.96	437.598	20.9188
	1275.86	412.067	20.2994
	1277.76	381.168	19.5235
	1279.66	342.026	18.4939
	1281.56	299.869	17.3167
	1283.46	258.612	16.0814
	1285.36	218.829	14.7929
	1287.26	182.176	13.4973
	1289.16	151.787	12.3202
	1291.06	124.464	11.1564
	1292.97	102.501	10.1243
	1294.87	84.5577	9.19553
	1296.77	70.8106	8.41491
	1298.67	59.9632	7.74359
	1300.57	51.223	7.15703
	1302.47	45.199	6.72302
	1304.37	39.7439	6.30428
	1306.27	35.7928	5.98271
	1308.17	32.302	5.68348
	1310.07	29.1683	5.40077
	1311.97	26.8167	5.17849
	1313.87	24.677	4.96759
	1315.77	23.1569	4.81216
	1317.67	21.4597	4.63246
	1319.57	19.9794	4.46984
	1321.47	18.204	4.26661
	1323.37	17.1879	4.14583
	1325.27	15.95	3.99375
	1327.17	14.6654	3.82954
	1329.07	13.0013	3.60573
	1330.97	11.5853	3.40371
	1332.87	10.717	3.27368
	1334.77	9.81721	3.13324
	1336.67	8.89551	2.98253
	1338.57	8.09328	2.84487
	1340.47	7.33599	2.7085
	1342.37	6.77692	2.60325
	1344.27	6.4095	2.5317
	1346.17	5.83488	2.41555
	1348.07	5.2014	2.28066
	1349.98	4.7539	2.18034
	1351.88	4.9044	2.21459
	1353.78	4.71723	2.17192
	1355.68	4.42527	2.10363
	1357.58	3.95786	1.98944
	1359.48	3.5925	1.89539
	1361.38	3.48332	1.86637
	1363.28	3.49416	1.86927
	1365.18	3.7396	1.9338
	1367.08	3.71772	1.92814
	1368.98	3.53384	1.87985
	1370.88	3.6061	1.89897
	1372.78	3.53974	1.88142
	1374.68	3.3684	1.83532
	1376.58	3.20182	1.78936
	1378.48	3.16875	1.7801
	1380.38	3.2143	1.79285
	1382.28	3.21402	1.79277
	1384.18	3.39109	1.84149
	1386.08	3.14498	1.77341
	1387.98	2.8764	1.696
	1389.88	2.48909	1.57768
	1391.78	2.41723	1.55475
	1393.68	1.73106	1.3157
	1395.58	1.66951	1.2921
	1397.48	1.38474	1.17675
	1399.38	1.22596	1.10723
	1401.28	0.878704	0.937392
	1403.18	0.774234	0.879906
	1405.08	0.553743	0.744139
	1406.98	-0.128064	0.35786
	1408.89	-0.400443	0.632806
	1410.79	-0.48434	0.695945
	1412.69	-0.349975	0.591587
	1414.59	-0.111789	0.334348
	1416.49	-0.217506	0.466375
	1418.39	-0.187335	0.432822
	1420.29	-0.711268	0.843367
	1422.19	-0.858752	0.926689
	1424.09	-0.568264	0.753833
	1425.99	-0.411469	0.641458
	1427.89	-0.347386	0.589395
	1429.79	-0.162024	0.402522
	1431.69	0.48612	0.697223
	1433.59	0.960133	0.979864
	1435.49	1.15592	1.07514
	1437.39	1.5079	1.22796
	1439.29	2.0547	1.43342
	1441.19	2.76267	1.66213
	1443.09	3.10596	1.76237
	1444.99	3.69761	1.92292
	1446.89	4.15762	2.03902
	1448.79	4.71243	2.17081
	1450.69	5.3349	2.30974
	1452.59	6.24881	2.49976
	1454.49	7.25139	2.69284
	1456.39	8.34604	2.88895
	1458.29	9.17965	3.02979
	1460.19	10.0801	3.17491
	1462.09	10.9735	3.31262
	1463.99	12.4674	3.53092
	1465.89	12.9716	3.60161
	1467.8	13.0349	3.61039
	1469.7	11.7562	3.42872
	1471.6	10.5412	3.24673
	1473.5	9.05527	3.0092
	1475.4	8.06813	2.84044
	1477.3	6.77442	2.60277
	1479.2	5.6913	2.38565
	1481.1	4.78808	2.18817
	1483	3.83642	1.95868
	1484.9	3.09963	1.76058
	1486.8	2.65008	1.62791
	1488.7	2.13178	1.46006
	1490.6	1.759	1.32627
	1492.5	1.64501	1.28258
	1494.4	1.91842	1.38507
	1496.3	1.6629	1.28954
	1498.2	1.48657	1.21925
	1500.1	1.06761	1.03325
	1502	0.931724	0.965259
	1503.9	0.850147	0.922034
	1505.8	0.710581	0.842959
	1507.7	0.442462	0.665178
	1509.6	0.332038	0.576228
	1511.5	-0.0954885	0.309012
	1513.4	-0.36475	0.603945
	1515.3	-0.401922	0.633973
	1517.2	-0.110957	0.333101
	1519.1	0.255908	0.505874
	1521	0.468893	0.684758
	1522.9	0.413606	0.643122
	1524.81	0.156461	0.395552
	1526.71	-0.291143	0.539577
	1528.61	-0.117476	0.342748
	1530.51	0.0756046	0.274963
	1532.41	0.596596	0.772396
	1534.31	0.349003	0.590765
	1536.21	0.514612	0.717364
	1538.11	0.154784	0.393425
	1540.01	0.185355	0.430529
	1541.91	0.240061	0.48996
	1543.81	0.346928	0.589006
	1545.71	0.731924	0.855526
	1547.61	0.739758	0.860092
	1549.51	0.703537	0.838771
	1551.41	0.503773	0.709769
	1553.31	0.483898	0.695628
	1555.21	0.450481	0.671178
	1557.11	0.422184	0.649757
	1559.01	0.622887	0.789232
	1560.91	0.744536	0.862865
	1562.81	0.77749	0.881754
	1564.71	0.62727	0.792004
	1566.61	1.05499	1.02713
	1568.51	1.21703	1.10319
	1570.41	1.35219	1.16284
	1572.31	1.37427	1.17229
	1574.21	1.55241	1.24596
	1576.11	1.37508	1.17264
	1578.01	1.08367	1.041
	1579.91	1.00696	1.00347
	1581.81	1.11617	1.05649
	1583.72	1.00995	1.00496
	1585.62	0.838989	0.915963
	1587.52	0.841605	0.91739
	1589.42	0.999047	0.999523
	1591.32	1.13021	1.06311
	1593.22	1.17105	1.08215
	1595.12	1.09313	1.04553
	1597.02	0.867909	0.931616
	1598.92	0.665816	0.815975
	1600.82	0.552202	0.743103
	1602.72	0.399957	0.632422
	1604.62	0.17848	0.422469
	1606.52	0.0785484	0.280265
	1608.42	0.299859	0.547594
	1610.32	0.579925	0.761528
	1612.22	0.769496	0.877209
	1614.12	0.52194	0.722454
	1616.02	0.226605	0.47603
	1617.92	0.0615214	0.248035
	1619.82	0.225767	0.475149
	1621.72	0.133587	0.365496
	1623.62	-0.0133524	0.115553
	1625.52	0.0833008	0.288619
	1627.42	0.0109702	0.104739
	1629.32	0.268253	0.517931
	1631.22	0.117171	0.342302
	1633.12	0.625487	0.790877
	1635.02	1.02808	1.01394
	1636.92	1.48255	1.2176
	1638.82	1.81023	1.34545
	1640.73	2.19051	1.48004
	1642.63	2.63875	1.62442
	1644.53	2.73999	1.65529
	1646.43	2.83583	1.68399
	1648.33	3.15779	1.77702
	1650.23	3.58507	1.89343
	1652.13	4.16468	2.04076
	1654.03	5.21174	2.28292
	1655.93	6.16675	2.48329
	1657.83	6.96912	2.63991
	1659.73	7.68648	2.77245
	1661.63	8.55237	2.92444
	1663.53	9.33776	3.05577
	1665.43	10.3764	3.22124
	1667.33	11.5355	3.3964
	1669.23	12.9104	3.5931
	1671.13	14.2076	3.7693
	1673.03	15.026	3.87634
	1674.93	15.914	3.98923
	1676.83	16.8273	4.10211
	1678.73	17.7506	4.21315
	1680.63	18.4976	4.30088
	1682.53	19.2137	4.38334
	1684.43	19.9229	4.4635
	1686.33	20.4765	4.5251
	1688.23	20.5277	4.53075
	1690.13	20.2787	4.50318
	1692.03	20.0011	4.47226
	1693.93	19.9787	4.46975
	1695.83	20.0014	4.47229
	1697.73	19.9826	4.47019
	1699.64	20.1422	4.48801
	1701.54	20.1347	4.48717
	1703.44	20.19	4.49333
	1705.34	19.8506	4.4554
	1707.24	19.6714	4.43524
	1709.14	19.1952	4.38123
	1711.04	18.644	4.31787
	1712.94	17.9083	4.23182
	1714.84	17.1709	4.14378
	1716.74	16.9081	4.11194
	1718.64	17.0637	4.13082
	1720.54	17.0609	4.13048
	1722.44	16.7864	4.09712
	1724.34	16.3095	4.0385
	1726.24	16.0802	4.01001
	1728.14	15.9053	3.98815
	1730.04	15.9912	3.9989
	1731.94	15.743	3.96775
	1733.84	15.6279	3.95322
	1735.74	15.3747	3.92106
	1737.64	15.0583	3.8805
	1739.54	14.7757	3.84392
	1741.44	14.2217	3.77117
	1743.34	13.2456	3.63945
	1745.24	12.3119	3.50883
	1747.14	11.9593	3.45823
	1749.04	11.063	3.3261
	1750.94	9.78749	3.1285
	1752.84	8.44493	2.90602
	1754.74	7.5697	2.75131
	1756.64	7.1257	2.6694
	1758.55	6.24766	2.49953
	1760.45	5.61968	2.37059
	1762.35	5.13785	2.26668
	1764.25	4.80643	2.19236
	1766.15	4.32621	2.07995
	1768.05	3.74492	1.93518
	1769.95	3.26608	1.80723
	1771.85	2.91285	1.70671
	1773.75	2.98264	1.72703
	1775.65	2.9631	1.72136
	1777.55	2.9414	1.71505
	1779.45	2.66606	1.63281
	1781.35	2.40525	1.55089
	1783.25	2.20426	1.48468
	1785.15	2.34646	1.53182
	1787.05	2.78552	1.66899
	1788.95	2.70373	1.6443
	1790.85	2.58125	1.60663
	1792.75	2.5964	1.61133
	1794.65	2.92806	1.71116
	1796.55	2.94577	1.71632
	1798.45	2.91285	1.70671
	1800.35	2.99119	1.7295
	1802.25	3.07925	1.75478
	1804.15	2.80575	1.67504
	1806.05	2.8801	1.69709
	1807.95	3.0047	1.73341
	1809.85	2.86384	1.69229
	1811.75	2.55791	1.59935
	1813.65	2.64578	1.62658
	1815.56	3.01462	1.73627
	1817.46	3.20786	1.79105
	1819.36	3.47643	1.86452
	1821.26	3.47533	1.86422
	1823.16	3.55179	1.88462
	1825.06	3.66802	1.91521
	1826.96	3.90326	1.97567
	1828.86	4.0102	2.00255
	1830.76	4.16272	2.04027
	1832.66	4.58473	2.1412
	1834.56	5.00711	2.23766
	1836.46	5.75312	2.39857
	1838.36	6.28187	2.50637
	1840.26	6.76609	2.60117
	1842.16	7.36105	2.71312
	1844.06	8.10429	2.8468
	1845.96	8.77184	2.96173
	1847.86	9.61171	3.10028
	1849.76	10.7642	3.28088
	1851.66	12.1214	3.48157
	1853.56	13.7453	3.70746
	1855.46	15.7937	3.97413
	1857.36	17.9183	4.233
	1859.26	19.9146	4.46258
	1861.16	21.9637	4.68654
	1863.06	24.1477	4.91403
	1864.96	26.1233	5.1111
	1866.86	27.7289	5.26582
	1868.76	29.3071	5.4136
	1870.66	30.8472	5.55403
	1872.56	31.9804	5.65512
	1874.47	32.6341	5.71263
	1876.37	33.0747	5.75106
	1878.27	33.1151	5.75457
	1880.17	32.9457	5.73983
	1882.07	32.5984	5.7095
	1883.97	32.4581	5.69721
	1885.87	32.0938	5.66514
	1887.77	31.5713	5.61883
	1889.67	30.4229	5.51569
	1891.57	28.9023	5.37608
	1893.47	26.8742	5.18404
	1895.37	25.0654	5.00653
	1897.27	23.2551	4.82235
	1899.17	21.0896	4.59234
	1901.07	18.407	4.29033
	1902.97	15.7648	3.97049
	1904.87	13.5332	3.67875
	1906.77	11.5207	3.39422
	1908.67	9.68826	3.1126
	1910.57	7.96803	2.82277
	1912.47	6.23023	2.49604
	1914.37	4.92681	2.21964
	1916.27	3.94148	1.98532
	1918.17	3.23618	1.79894
	1920.07	2.57693	1.60528
	1921.97	2.09519	1.44748
	1923.87	1.5894	1.26072
	1925.77	1.36116	1.16669
	1927.67	1.28914	1.1354
	1929.57	1.10518	1.05128
	1931.48	0.680842	0.825131
	1933.38	0.310507	0.557232
	1935.28	0.331468	0.575733
	1937.18	0.291606	0.540005
	1939.08	0.0853003	0.292062
	1940.98	0.112139	0.334871
	1942.88	0.194869	0.44144
	1944.78	0.122443	0.349918
	1946.68	-0.0970927	0.311597
	1948.58	-0.18058	0.424947
	1950.48	-0.193233	0.439583
	1952.38	-0.147644	0.384245
	1954.28	-0.132402	0.363871
	1956.18	-0.191254	0.437326
	1958.08	-0.244191	0.494157
	1959.98	-0.200293	0.447541
	1961.88	0.159584	0.39948
	1963.78	0.454486	0.674156
	1965.68	0.218288	0.467213
	1967.58	0.063578	0.252147
	1969.48	-0.0259966	0.161235
	1971.38	0.212059	0.460499
	1973.28	0.086441	0.294009
	1975.18	0.178024	0.421929
	1977.08	0.311312	0.557954
	1978.98	0.474491	0.688833
	1980.88	0.250348	0.500348
	1982.78	0.0295498	0.1719
	1984.68	-0.147184	0.383645
	1986.58	-0.0428372	0.206972
	1988.48	0.129692	0.360128
	1990.39	0.120416	0.347011
	1992.29	0.0812096	0.284973
	1994.19	0.157795	0.397234
	1996.09	0.415412	0.644525
	1997.99	0.371076	0.60916
	1999.89	0.308467	0.555398
	2001.79	0.163022	0.40376
	2003.69	0.391037	0.625329
	2005.59	0.514137	0.717034
	2007.49	0.557158	0.74643
	2009.39	0.45002	0.670836
	2011.29	0.554325	0.74453
	2013.19	0.677355	0.823016
	2015.09	0.852932	0.923543
	2016.99	1.09726	1.0475
	2018.89	1.12812	1.06213
	2020.79	1.01608	1.00801
	2022.69	1.02534	1.01259
	2024.59	0.876932	0.936447
	2026.49	0.529743	0.727834
	2028.39	0.181243	0.425726
	2030.29	-0.0567704	0.238265
	2032.19	0.125695	0.354535
	2034.09	0.388633	0.623405
	2035.99	0.499422	0.706698
	2037.89	0.296112	0.544161
	2039.79	0.0409593	0.202384
	2041.69	0.169156	0.411286
	2043.59	0.295491	0.543591
	2045.49	0.252535	0.502529
	2047.39	0.0679097	0.260595
	2049.3	-0.193512	0.4399
	2051.2	-0.165395	0.406688
	2053.1	-0.0168473	0.129797
	2055	0.214184	0.4628
	2056.9	0.25744	0.507386
	2058.8	0.348988	0.590752
	2060.7	0.414227	0.643605
	2062.6	0.260557	0.510448
	2064.5	0.100878	0.317613
	2066.4	0.0840943	0.28999
	2068.3	0.216221	0.464996
	2070.2	0.296843	0.544833
	2072.1	0.423486	0.650758
	2074	0.313354	0.559781
	2075.9	0.468942	0.684794
	2077.8	0.52195	0.722461
	2079.7	0.771105	0.878126
	2081.6	0.734212	0.856862
	2083.5	0.952507	0.975965
	2085.4	1.16307	1.07846
	2087.3	1.19979	1.09535
	2089.2	0.995829	0.997912
	2091.1	0.849631	0.921755
	2093	0.894108	0.945573
	2094.9	1.0478	1.02362
	2096.8	1.29079	1.13613
	2098.7	1.51423	1.23054
	2100.6	1.49559	1.22294
	2102.5	1.43361	1.19733
	2104.4	1.59841	1.26428
	2106.31	1.65103	1.28492
	2108.21	1.81952	1.3489
	2110.11	1.84032	1.35658
	2112.01	1.81173	1.34601
	2113.91	1.68553	1.29828
	2115.81	1.7091	1.30733
	2117.71	1.7128	1.30874
	2119.61	2.0228	1.42225
	2121.51	2.32979	1.52637
	2123.41	2.30803	1.51922
	2125.31	2.1694	1.47289
	2127.21	2.13558	1.46136
	2129.11	2.17449	1.47461
	2131.01	1.53611	1.2394
	2132.91	0.838088	0.915471
	2134.81	0.775456	0.8806
	2136.71	0.646366	0.803969
	2138.61	0.567636	0.753416
	2140.51	0.630608	0.794108
	2142.41	0.522877	0.723103
	2144.31	0.429363	0.655258
	2146.21	0.242474	0.492416
	2148.11	0.436357	0.660573
	2150.01	0.369279	0.607683
	2151.91	0.0686311	0.261975
	2153.81	-0.290979	0.539425
	2155.71	-0.193312	0.439672
	2157.61	0.0632942	0.251583
	2159.51	0.347285	0.589309
	2161.41	0.269444	0.51908
	2163.31	0.258302	0.508234
	2165.22	0.229418	0.478976
	2167.12	0.322891	0.568235
	2169.02	0.30199	0.549536
	2170.92	0.353988	0.594969
	2172.82	0.136756	0.369806
	2174.72	0.0308798	0.175726
	2176.62	-0.0896092	0.299348
	2178.52	-0.0333396	0.182591
	2180.42	0.0184949	0.135996
	2182.32	-0.00957522	0.097853
	2184.22	-0.0736378	0.271363
	2186.12	-0.259229	0.509145
	2188.02	-0.0704888	0.265497
	2189.92	0.00642777	0.0801733
	2191.82	0.196411	0.443183
	2193.72	0.170779	0.413254
	2195.62	0.0760707	0.275809
	2197.52	-0.0977527	0.312654
	2199.42	-0.12934	0.359638
	2201.32	-0.00556407	0.0745927
	2203.22	0.0471778	0.217205
