Generated file C:/Users/didvk/Downloads/Dioptas_Win64_0.5.0/1_mask&dat&fxye_1position/26_ReMoB2_1040psi_noRuby_S_P1_C1_D1w_163.fxye using DIOPTAS
# == pyFAI calibration ==
# Distance Sample to Detector: 0.21643023575112377 m
# PONI: 8.848e-02, 8.638e-02 m
# Rotations: 0.008179 -0.001145 -0.000000 rad
# 
# == Fit2d calibration ==
# Distance Sample-beamCenter: 216.438 mm
# Center: x=491.896, y=512.970 pix
# Tilt: 0.473 deg  TiltPlanRot: -172.032 deg
# 
# Detector Pilatus CdTe 1M	 PixelSize= 1.720e-04, 1.720e-04 m
#    Detector has a mask: True 
#    Detector has a dark current: False 
#    detector has a flat field: False 
# 
# Wavelength: 4.133e-11 m
# Mask applied: None
# Dark current applied: None
# Flat field applied: None
# Polarization factor: None
# Normalization factor: None
BANK	1	1006	1006 CONS	293.393	1.90033 0.4133 0.0 FXYE
	293.393	0.801933	0.895507
	295.294	0.480989	0.693534
	297.194	0.677832	0.823306
	299.094	0.919549	0.958931
	300.995	0.784852	0.885919
	302.895	0.527322	0.72617
	304.795	0.0906775	0.301127
	306.696	-0.25727	0.507217
	308.596	-0.0487809	0.220864
	310.496	-0.0807481	0.284162
	312.397	0.533782	0.730604
	314.297	0.647217	0.804498
	316.197	1.03311	1.01642
	318.098	0.544565	0.737947
	319.998	0.736243	0.858046
	321.898	0.694862	0.833584
	323.799	0.874473	0.935133
	325.699	1.06774	1.03331
	327.599	0.989895	0.994934
	329.5	0.799517	0.894157
	331.4	0.900771	0.94909
	333.3	1.36364	1.16775
	335.201	1.43211	1.19671
	337.101	0.954232	0.976848
	339.001	0.709912	0.842563
	340.902	1.1137	1.05532
	342.802	0.777755	0.881904
	344.702	0.935744	0.967339
	346.603	1.10957	1.05336
	348.503	1.46403	1.20997
	350.403	1.28255	1.1325
	352.304	1.66938	1.29205
	354.204	2.55129	1.59728
	356.104	3.82201	1.955
	358.005	4.95921	2.22693
	359.905	6.34124	2.51818
	361.805	8.26755	2.87533
	363.706	9.10701	3.01778
	365.606	8.83397	2.9722
	367.506	7.90108	2.81089
	369.407	6.07626	2.46501
	371.307	4.49079	2.11915
	373.207	3.22546	1.79596
	375.108	2.24515	1.49838
	377.008	1.64463	1.28243
	378.908	0.971335	0.985563
	380.808	0.654528	0.809029
	382.709	0.746254	0.86386
	384.609	0.634641	0.796644
	386.509	0.265997	0.515749
	388.41	-0.0969341	0.311342
	390.31	0.144046	0.379534
	392.21	0.394108	0.62778
	394.111	0.967036	0.98338
	396.011	0.870281	0.932888
	397.911	1.2085	1.09932
	399.812	1.09334	1.04563
	401.712	1.34997	1.16188
	403.612	1.17396	1.0835
	405.513	1.22339	1.10607
	407.413	1.12267	1.05956
	409.313	0.832841	0.912601
	411.214	0.973717	0.986771
	413.114	1.15024	1.07249
	415.014	1.16118	1.07758
	416.915	1.04392	1.02172
	418.815	1.17393	1.08348
	420.715	1.71424	1.30929
	422.616	1.85777	1.363
	424.516	0.868124	0.931732
	426.416	0.228409	0.477921
	428.317	-0.1216	0.348712
	430.217	0.325984	0.57095
	432.117	0.590857	0.768672
	434.018	0.562928	0.750286
	435.918	0.867006	0.931132
	437.818	0.923595	0.961039
	439.719	1.39334	1.1804
	441.619	0.918191	0.958223
	443.519	0.349114	0.590859
	445.42	-0.0707613	0.26601
	447.32	-0.148281	0.385073
	449.22	0.35536	0.596121
	451.121	0.631105	0.794421
	453.021	0.742817	0.861868
	454.921	0.765628	0.875002
	456.822	0.99832	0.99916
	458.722	1.54706	1.24381
	460.622	1.60793	1.26804
	462.523	1.28188	1.1322
	464.423	0.573577	0.757349
	466.323	-0.0169213	0.130082
	468.224	0.0149858	0.122417
	470.124	0.00378686	0.0615375
	472.024	0.646164	0.803844
	473.924	0.615179	0.784333
	475.825	0.400722	0.633026
	477.725	0.129018	0.359191
	479.625	0.250279	0.500279
	481.526	0.342617	0.585335
	483.426	0.490374	0.700267
	485.326	0.719888	0.848462
	487.227	0.88558	0.941053
	489.127	1.067	1.03296
	491.027	0.933388	0.96612
	492.928	1.10675	1.05202
	494.828	0.881225	0.938736
	496.728	0.963965	0.981817
	498.629	0.885356	0.940934
	500.529	0.79824	0.893443
	502.429	0.595178	0.771478
	504.33	0.480421	0.693124
	506.23	1.08815	1.04314
	508.13	1.12586	1.06107
	510.031	0.902526	0.950014
	511.931	0.494833	0.703444
	513.831	0.289019	0.537605
	515.732	-0.124198	0.352417
	517.632	-0.285598	0.534414
	519.532	-0.169187	0.411324
	521.433	0.532106	0.729456
	523.333	1.07384	1.03626
	525.233	1.09525	1.04654
	527.134	0.978985	0.989437
	529.034	1.03716	1.01841
	530.934	0.815908	0.903276
	532.835	0.852108	0.923097
	534.735	0.564988	0.751657
	536.635	0.909494	0.953674
	538.536	1.30503	1.14238
	540.436	1.62927	1.27643
	542.336	1.33582	1.15578
	544.237	0.819042	0.90501
	546.137	0.596201	0.77214
	548.037	0.449971	0.670799
	549.938	0.867389	0.931337
	551.838	0.848228	0.920993
	553.738	0.663681	0.814666
	555.639	0.909829	0.953849
	557.539	1.48392	1.21816
	559.439	1.92002	1.38565
	561.34	1.40031	1.18335
	563.24	0.400089	0.632526
	565.14	-0.0374383	0.19349
	567.041	-0.00473901	0.0688404
	568.941	0.385113	0.620575
	570.841	0.668764	0.81778
	572.741	0.588764	0.767309
	574.642	0.230155	0.479744
	576.542	-0.0451408	0.212464
	578.442	-0.17239	0.415198
	580.343	-0.179446	0.423611
	582.243	0.0696091	0.263835
	584.143	0.0526144	0.229378
	586.044	0.108826	0.329888
	587.944	-0.108294	0.329081
	589.844	0.614192	0.783704
	591.745	0.767554	0.876102
	593.645	1.07083	1.03481
	595.545	1.33928	1.15727
	597.446	2.22536	1.49176
	599.346	2.77956	1.6672
	601.246	2.98714	1.72833
	603.147	2.43435	1.56024
	605.047	2.51033	1.5844
	606.947	2.54699	1.59593
	608.848	2.45106	1.56559
	610.748	1.82234	1.34994
	612.648	0.866634	0.930932
	614.549	0.526277	0.72545
	616.449	0.20318	0.450755
	618.349	0.474563	0.688885
	620.25	0.361589	0.601323
	622.15	0.377342	0.614282
	624.05	0.436937	0.661012
	625.951	0.494652	0.703315
	627.851	0.582475	0.7632
	629.751	0.241603	0.491531
	631.652	-0.027479	0.165768
	633.552	0.205793	0.453644
	635.452	0.514818	0.717508
	637.353	0.89581	0.946472
	639.253	0.71557	0.845914
	641.153	0.699719	0.836492
	643.054	0.443271	0.665786
	644.954	0.425432	0.652252
	646.854	0.705023	0.839656
	648.755	0.809495	0.899719
	650.655	0.683829	0.82694
	652.555	0.594499	0.771038
	654.456	0.63578	0.797358
	656.356	0.846422	0.920012
	658.256	1.34914	1.16153
	660.157	2.10169	1.44972
	662.057	2.96861	1.72296
	663.957	3.8309	1.95727
	665.857	5.05579	2.24851
	667.758	6.27784	2.50556
	669.658	6.90107	2.62699
	671.558	6.19003	2.48798
	673.459	4.88425	2.21003
	675.359	3.09627	1.75962
	677.259	1.70621	1.30622
	679.16	0.841944	0.917575
	681.06	0.175806	0.419292
	682.96	0.000693594	0.0263362
	684.861	-0.227888	0.477376
	686.761	-0.237883	0.487732
	688.661	0.0442476	0.210351
	690.562	0.727514	0.852944
	692.462	0.824903	0.908242
	694.362	0.430548	0.656162
	696.263	0.52953	0.727688
	698.163	1.42906	1.19543
	700.063	2.76394	1.66251
	701.964	3.59002	1.89473
	703.864	4.53587	2.12976
	705.764	6.09569	2.46895
	707.665	8.55265	2.92449
	709.565	10.8594	3.29536
	711.465	12.9642	3.60058
	713.366	14.4973	3.80753
	715.266	15.3892	3.92291
	717.166	16.2786	4.03467
	719.067	17.6344	4.19933
	720.967	20.2716	4.5024
	722.867	23.9487	4.89374
	724.768	29.3342	5.41611
	726.668	35.974	5.99783
	728.568	41.0173	6.40448
	730.469	43.887	6.62473
	732.369	43.3076	6.58085
	734.269	39.8424	6.31208
	736.17	34.6199	5.88387
	738.07	29.9365	5.47142
	739.97	24.9856	4.99856
	741.871	21.4338	4.62966
	743.771	18.7679	4.33219
	745.671	16.1597	4.01992
	747.572	13.7241	3.7046
	749.472	11.7676	3.4304
	751.372	10.5378	3.2462
	753.273	9.42284	3.06966
	755.173	8.51785	2.91854
	757.073	7.80928	2.79451
	758.973	7.234	2.68961
	760.874	6.92431	2.63141
	762.774	6.39464	2.52876
	764.674	6.08043	2.46585
	766.575	5.47158	2.33914
	768.475	5.28693	2.29933
	770.375	5.10319	2.25902
	772.276	4.75257	2.18004
	774.176	4.74574	2.17847
	776.076	4.61258	2.14769
	777.977	4.46668	2.11345
	779.877	3.87027	1.9673
	781.777	3.63344	1.90616
	783.678	3.21929	1.79424
	785.578	3.45065	1.85759
	787.478	3.56706	1.88867
	789.379	3.42077	1.84953
	791.279	2.84788	1.68757
	793.179	2.4507	1.56547
	795.08	2.05927	1.43502
	796.98	2.15025	1.46637
	798.88	2.27922	1.50971
	800.781	2.36906	1.53918
	802.681	1.82471	1.35082
	804.581	1.0796	1.03904
	806.482	0.808184	0.89899
	808.382	0.673987	0.820967
	810.282	0.582417	0.763163
	812.183	0.524046	0.72391
	814.083	0.454856	0.67443
	815.983	0.35241	0.593641
	817.884	0.0959193	0.309708
	819.784	-0.0481161	0.219354
	821.684	-0.022632	0.150439
	823.585	-0.00339087	0.0582311
	825.485	0.119451	0.345616
	827.385	0.240884	0.4908
	829.286	0.133884	0.365902
	831.186	0.20641	0.454324
	833.086	0.185659	0.430882
	834.987	0.474783	0.689045
	836.887	0.364574	0.603799
	838.787	0.221267	0.47039
	840.688	0.0738396	0.271734
	842.588	0.348184	0.590071
	844.488	0.125132	0.35374
	846.389	0.112169	0.334916
	848.289	-0.162542	0.403165
	850.189	-0.00361288	0.0601073
	852.089	0.246441	0.496428
	853.99	0.621037	0.788059
	855.89	0.712488	0.84409
	857.79	0.769392	0.87715
	859.691	0.727187	0.852752
	861.591	0.601358	0.775473
	863.491	0.495495	0.703914
	865.392	0.479131	0.692193
	867.292	0.0455635	0.213456
	869.192	-0.0569926	0.238731
	871.093	-0.0903325	0.300554
	872.993	0.231054	0.480681
	874.893	0.363381	0.602811
	876.794	0.336628	0.580196
	878.694	0.108943	0.330065
	880.594	0.244241	0.494207
	882.495	0.0689584	0.262599
	884.395	-0.152925	0.391056
	886.295	-0.413993	0.643423
	888.196	-0.21603	0.46479
	890.096	-0.167644	0.409444
	891.996	0.00394022	0.0627712
	893.897	0.0852079	0.291904
	895.797	0.15019	0.387544
	897.697	0.373287	0.610972
	899.598	0.322682	0.568051
	901.498	0.14772	0.384343
	903.398	-0.36953	0.60789
	905.299	-0.531466	0.729017
	907.199	-0.287954	0.536613
	909.099	-0.23221	0.481882
	911	-0.210767	0.459093
	912.9	-0.0116714	0.108034
	914.8	0.369244	0.607655
	916.701	0.741628	0.861178
	918.601	0.706872	0.840757
	920.501	0.777548	0.881787
	922.402	0.967412	0.983571
	924.302	1.56865	1.25246
	926.202	2.04302	1.42934
	928.103	2.56952	1.60297
	930.003	3.07938	1.75482
	931.903	3.98424	1.99606
	933.804	5.64859	2.37668
	935.704	7.41141	2.72239
	937.604	8.78568	2.96406
	939.505	10.3192	3.21236
	941.405	12.3876	3.51961
	943.305	15.3451	3.91728
	945.206	18.8856	4.34575
	947.106	23.5427	4.85208
	949.006	29.6491	5.4451
	950.906	38.4207	6.19845
	952.807	49.4919	7.03505
	954.707	64.9329	8.0581
	956.607	84.7629	9.20668
	958.508	111.125	10.5416
	960.408	144.645	12.0268
	962.308	182.418	13.5062
	964.209	222.653	14.9216
	966.109	257.657	16.0517
	968.009	283.065	16.8245
	969.91	294.809	17.17
	971.81	295.416	17.1877
	973.71	287.908	16.9678
	975.611	276.04	16.6144
	977.511	260.254	16.1324
	979.411	242.508	15.5727
	981.312	224.763	14.9921
	983.212	208.469	14.4385
	985.112	193.559	13.9125
	987.013	179.155	13.3849
	988.913	166.193	12.8916
	990.813	153.378	12.3846
	992.714	140.758	11.8641
	994.614	128.904	11.3536
	996.514	118.112	10.8679
	998.415	108.395	10.4113
	1000.31	98.6637	9.93296
	1002.22	91.7556	9.57891
	1004.12	86.0148	9.27442
	1006.02	81.8045	9.04458
	1007.92	78.6817	8.87027
	1009.82	75.0425	8.66271
	1011.72	71.4116	8.45054
	1013.62	67.9547	8.24347
	1015.52	64.4047	8.02525
	1017.42	60.7886	7.79671
	1019.32	57.1215	7.55787
	1021.22	53.3277	7.30258
	1023.12	48.6638	6.97594
	1025.02	43.3544	6.5844
	1026.92	38.8521	6.23314
	1028.82	34.7215	5.89249
	1030.72	31.2586	5.59094
	1032.62	28.0033	5.29181
	1034.52	24.3347	4.93302
	1036.42	21.4306	4.62932
	1038.32	18.9138	4.349
	1040.22	16.4424	4.05492
	1042.12	14.182	3.7659
	1044.02	11.7011	3.42069
	1045.92	10.207	3.19484
	1047.82	8.63783	2.93902
	1049.72	7.13957	2.672
	1051.62	5.33896	2.31062
	1053.52	3.82757	1.95642
	1055.42	2.82587	1.68103
	1057.32	1.71071	1.30794
	1059.23	0.963516	0.981588
	1061.13	0.295623	0.543712
	1063.03	-0.25161	0.501607
	1064.93	-0.912538	0.955269
	1066.83	-1.26681	1.12553
	1068.73	-1.01459	1.00727
	1070.63	-0.421456	0.649196
	1072.53	0.0436567	0.208942
	1074.43	0.222177	0.471356
	1076.33	0.91537	0.95675
	1078.23	2.15413	1.46769
	1080.13	3.45638	1.85913
	1082.03	4.31894	2.07821
	1083.93	5.13456	2.26596
	1085.83	6.28887	2.50776
	1087.73	7.17056	2.67779
	1089.63	7.31126	2.70393
	1091.53	6.94889	2.63607
	1093.43	6.46222	2.54209
	1095.33	5.59157	2.36465
	1097.23	4.62693	2.15103
	1099.13	3.68693	1.92014
	1101.03	2.93504	1.7132
	1102.93	2.32004	1.52317
	1104.83	1.56559	1.25124
	1106.73	0.667546	0.817035
	1108.63	0.206719	0.454664
	1110.53	0.22913	0.478675
	1112.43	0.127444	0.356993
	1114.33	0.108258	0.329026
	1116.23	0.178467	0.422454
	1118.14	0.231461	0.481104
	1120.04	0.504606	0.710356
	1121.94	1.16662	1.0801
	1123.84	1.57007	1.25302
	1125.74	1.7119	1.30839
	1127.64	1.94334	1.39404
	1129.54	2.16796	1.4724
	1131.44	2.46056	1.56862
	1133.34	2.01034	1.41786
	1135.24	1.45546	1.20642
	1137.14	1.07022	1.03451
	1139.04	1.1555	1.07494
	1140.94	1.21663	1.10301
	1142.84	1.09485	1.04635
	1144.74	1.14402	1.06959
	1146.64	1.1176	1.05716
	1148.54	1.21192	1.10087
	1150.44	1.18534	1.08874
	1152.34	1.0191	1.0095
	1154.24	0.651434	0.807115
	1156.14	0.584243	0.764358
	1158.04	0.931117	0.964944
	1159.94	1.203	1.09682
	1161.84	1.09386	1.04588
	1163.74	1.07155	1.03516
	1165.64	1.43355	1.19731
	1167.54	1.57555	1.25521
	1169.44	1.45414	1.20588
	1171.34	0.856686	0.925573
	1173.24	0.619618	0.787158
	1175.15	0.64166	0.801037
	1177.05	0.763265	0.87365
	1178.95	0.691803	0.831747
	1180.85	0.349237	0.590963
	1182.75	0.251913	0.50191
	1184.65	0.187171	0.432633
	1186.55	-0.110031	0.331709
	1188.45	-0.552058	0.743006
	1190.35	-0.516998	0.719026
	1192.25	-0.516297	0.718538
	1194.15	-0.364571	0.603797
	1196.05	-0.413857	0.643318
	1197.95	-0.187833	0.433397
	1199.85	0.0222385	0.149126
	1201.75	-0.00334921	0.0578724
	1203.65	-0.212264	0.460721
	1205.55	-0.403259	0.635027
	1207.45	-0.346823	0.588917
	1209.35	-0.166441	0.407972
	1211.25	-0.0729112	0.270021
	1213.15	0.575735	0.758772
	1215.05	1.2478	1.11705
	1216.95	1.74542	1.32114
	1218.85	1.75217	1.3237
	1220.75	2.61049	1.6157
	1222.65	3.50702	1.8727
	1224.55	4.31367	2.07694
	1226.45	5.39372	2.32244
	1228.35	6.6648	2.58163
	1230.25	8.41265	2.90046
	1232.15	10.2436	3.20056
	1234.06	12.1809	3.49012
	1235.96	14.6404	3.82628
	1237.86	17.6684	4.20339
	1239.76	21.9014	4.67989
	1241.66	27.241	5.21929
	1243.56	33.1849	5.76064
	1245.46	41.1634	6.41587
	1247.36	51.4819	7.17509
	1249.26	64.1905	8.0119
	1251.16	81.69	9.03825
	1253.06	103.016	10.1497
	1254.96	131.224	11.4553
	1256.86	166.203	12.892
	1258.76	206.588	14.3732
	1260.66	256.35	16.0109
	1262.56	310.347	17.6167
	1264.46	368.129	19.1867
	1266.36	424.06	20.5927
	1268.26	470.559	21.6924
	1270.16	504.862	22.4691
	1272.06	523.044	22.8701
	1273.96	528.369	22.9863
	1275.86	519.443	22.7913
	1277.76	500.823	22.3791
	1279.66	467.141	21.6134
	1281.56	426.515	20.6522
	1283.46	380.675	19.5109
	1285.36	329.345	18.1479
	1287.26	278.827	16.6981
	1289.16	231.39	15.2115
	1291.06	186.188	13.6451
	1292.97	149.887	12.2429
	1294.87	118.464	10.8841
	1296.77	94.414	9.71669
	1298.67	76.2259	8.73074
	1300.57	62.33	7.89494
	1302.47	52.8605	7.27052
	1304.37	44.8089	6.69394
	1306.27	38.7664	6.22627
	1308.17	33.6109	5.79749
	1310.07	30.0715	5.48375
	1311.97	27.4448	5.23878
	1313.87	25.0467	5.00467
	1315.77	22.5534	4.74905
	1317.67	20.4311	4.52007
	1319.57	18.3939	4.28881
	1321.47	16.5827	4.07219
	1323.37	15.513	3.93865
	1325.27	14.5398	3.81311
	1327.17	13.2887	3.64536
	1329.07	11.9722	3.46009
	1330.97	10.536	3.24593
	1332.87	9.58107	3.09533
	1334.77	8.75453	2.95881
	1336.67	8.03832	2.83519
	1338.57	7.21286	2.68568
	1340.47	6.18716	2.4874
	1342.37	5.28566	2.29906
	1344.27	4.69224	2.16616
	1346.17	4.31018	2.0761
	1348.07	3.50375	1.87183
	1349.98	2.40951	1.55226
	1351.88	1.87413	1.36899
	1353.78	1.69654	1.30251
	1355.68	1.65696	1.28723
	1357.58	1.34052	1.15781
	1359.48	1.09074	1.04438
	1361.38	1.02147	1.01068
	1363.28	1.20626	1.0983
	1365.18	1.40453	1.18513
	1367.08	1.33944	1.15734
	1368.98	1.16985	1.0816
	1370.88	0.737111	0.858551
	1372.78	0.531611	0.729117
	1374.68	0.311184	0.557839
	1376.58	0.509953	0.71411
	1378.48	0.671118	0.819218
	1380.38	0.915415	0.956773
	1382.28	0.904574	0.951091
	1384.18	0.903543	0.950549
	1386.08	0.887851	0.942258
	1387.98	1.04647	1.02297
	1389.88	1.22271	1.10576
	1391.78	1.06642	1.03267
	1393.68	0.939292	0.969171
	1395.58	0.696353	0.834477
	1397.48	0.953032	0.976234
	1399.38	0.744046	0.862581
	1401.28	0.607869	0.779659
	1403.18	0.337219	0.580706
	1405.08	0.132996	0.364687
	1406.98	-0.00575107	0.0758358
	1408.89	-0.0390411	0.197588
	1410.79	0.233002	0.482702
	1412.69	-0.122456	0.349937
	1414.59	-0.0546954	0.23387
	1416.49	-0.231321	0.480959
	1418.39	-0.101552	0.318673
	1420.29	-0.265634	0.515397
	1422.19	-0.239686	0.489577
	1424.09	-0.463116	0.680526
	1425.99	-0.55106	0.742334
	1427.89	-0.469341	0.685084
	1429.79	-0.308007	0.554984
	1431.69	0.000842807	0.0290311
	1433.59	0.732579	0.855908
	1435.49	1.25189	1.11888
	1437.39	1.51756	1.23189
	1439.29	1.87276	1.36849
	1441.19	2.52128	1.58785
	1443.09	3.14321	1.77291
	1444.99	3.6939	1.92195
	1446.89	3.91515	1.97867
	1448.79	4.0602	2.01499
	1450.69	4.50164	2.12171
	1452.59	5.28966	2.29993
	1454.49	6.06098	2.46191
	1456.39	6.73332	2.59486
	1458.29	6.82222	2.61194
	1460.19	6.97538	2.64109
	1462.09	7.16548	2.67684
	1463.99	7.65521	2.76681
	1465.89	7.59362	2.75565
	1467.8	7.57184	2.7517
	1469.7	7.07281	2.65948
	1471.6	6.88504	2.62394
	1473.5	6.82281	2.61205
	1475.4	6.55231	2.55975
	1477.3	5.81788	2.41203
	1479.2	5.19013	2.27818
	1481.1	4.70024	2.168
	1483	4.67601	2.16241
	1484.9	4.07504	2.01867
	1486.8	3.82464	1.95567
	1488.7	3.22121	1.79477
	1490.6	3.10695	1.76266
	1492.5	2.96907	1.7231
	1494.4	2.58302	1.60718
	1496.3	1.85688	1.36267
	1498.2	1.24618	1.11633
	1500.1	0.812657	0.901475
	1502	0.901314	0.949376
	1503.9	0.951617	0.975509
	1505.8	0.977377	0.988624
	1507.7	0.648206	0.805113
	1509.6	0.514009	0.716944
	1511.5	0.33602	0.579672
	1513.4	0.240937	0.490853
	1515.3	0.303362	0.550783
	1517.2	0.075946	0.275583
	1519.1	0.0514794	0.226891
	1521	0.122998	0.350711
	1522.9	0.240951	0.490867
	1524.81	-0.145504	0.381449
	1526.71	-0.300189	0.547895
	1528.61	-0.347267	0.589293
	1530.51	-0.136514	0.369478
	1532.41	0.257687	0.507629
	1534.31	0.467747	0.683921
	1536.21	0.790102	0.888877
	1538.11	0.807864	0.898813
	1540.01	0.827532	0.909688
	1541.91	0.776816	0.881372
	1543.81	0.510249	0.714317
	1545.71	0.348887	0.590666
	1547.61	-0.0162788	0.127588
	1549.51	0.250144	0.500144
	1551.41	0.631287	0.794535
	1553.31	0.990826	0.995403
	1555.21	0.876117	0.936011
	1557.11	0.466234	0.682813
	1559.01	0.431057	0.656549
	1560.91	0.537398	0.733075
	1562.81	0.933196	0.96602
	1564.71	0.870671	0.933097
	1566.61	1.00018	1.00009
	1568.51	1.01923	1.00957
	1570.41	0.774798	0.880226
	1572.31	0.794658	0.891436
	1574.21	0.895551	0.946335
	1576.11	0.717684	0.847163
	1578.01	0.539554	0.734543
	1579.91	0.487779	0.698412
	1581.81	0.732995	0.856151
	1583.72	0.822614	0.906981
	1585.62	0.920522	0.959439
	1587.52	0.920041	0.959188
	1589.42	0.957151	0.978341
	1591.32	0.879731	0.93794
	1593.22	0.897991	0.947624
	1595.12	0.963088	0.98137
	1597.02	1.06827	1.03357
	1598.92	0.822541	0.90694
	1600.82	0.698242	0.835609
	1602.72	0.755558	0.869228
	1604.62	0.904896	0.95126
	1606.52	0.663688	0.814671
	1608.42	0.266653	0.516384
	1610.32	0.146197	0.382358
	1612.22	0.456348	0.675535
	1614.12	0.358895	0.599078
	1616.02	0.250533	0.500533
	1617.92	0.200154	0.447386
	1619.82	0.183413	0.428267
	1621.72	0.0903175	0.300529
	1623.62	-0.0558704	0.236369
	1625.52	-0.0896617	0.299436
	1627.42	0.0549159	0.234342
	1629.32	0.209066	0.457237
	1631.22	0.372804	0.610577
	1633.12	0.589516	0.767799
	1635.02	0.671547	0.81948
	1636.92	1.08926	1.04367
	1638.82	1.25351	1.1196
	1640.73	1.6331	1.27793
	1642.63	1.88113	1.37154
	1644.53	2.4425	1.56285
	1646.43	2.9494	1.71738
	1648.33	3.52928	1.87864
	1650.23	4.12387	2.03073
	1652.13	4.67667	2.16256
	1654.03	5.30589	2.30345
	1655.93	6.19878	2.48973
	1657.83	7.43965	2.72757
	1659.73	9.00582	3.00097
	1661.63	10.2882	3.20752
	1663.53	11.876	3.44616
	1665.43	13.4529	3.66782
	1667.33	15.4024	3.92459
	1669.23	17.446	4.17684
	1671.13	19.4606	4.41142
	1673.03	21.9055	4.68033
	1674.93	24.4897	4.94871
	1676.83	26.7706	5.17403
	1678.73	28.7214	5.35923
	1680.63	30.1391	5.48991
	1682.53	31.3551	5.59956
	1684.43	32.1728	5.67211
	1686.33	32.8639	5.73271
	1688.23	33.4831	5.78646
	1690.13	33.9156	5.82371
	1692.03	33.6939	5.80464
	1693.93	32.6815	5.71678
	1695.83	32.101	5.66577
	1697.73	31.75	5.63471
	1699.64	30.9924	5.56709
	1701.54	29.8048	5.45938
	1703.44	29.0261	5.38759
	1705.34	28.442	5.33311
	1707.24	27.9415	5.28597
	1709.14	27.2957	5.22453
	1711.04	26.2288	5.1214
	1712.94	25.4133	5.04116
	1714.84	24.4922	4.94896
	1716.74	23.3393	4.83108
	1718.64	22.2525	4.71726
	1720.54	21.4535	4.6318
	1722.44	20.6369	4.54278
	1724.34	19.6325	4.43086
	1726.24	18.8776	4.34484
	1728.14	17.7532	4.21345
	1730.04	16.5311	4.06585
	1731.94	15.4444	3.92994
	1733.84	14.5907	3.81978
	1735.74	13.6749	3.69797
	1737.64	13.1616	3.62789
	1739.54	12.4723	3.53161
	1741.44	11.7454	3.42716
	1743.34	10.7749	3.28252
	1745.24	10.3068	3.21043
	1747.14	9.76449	3.12482
	1749.04	9.01478	3.00246
	1750.94	8.30213	2.88134
	1752.84	7.50013	2.73864
	1754.74	6.75381	2.59881
	1756.64	6.02158	2.45389
	1758.55	5.59377	2.36512
	1760.45	5.35818	2.31477
	1762.35	4.84783	2.20178
	1764.25	4.22498	2.05548
	1766.15	3.6706	1.91588
	1768.05	3.51633	1.87519
	1769.95	3.19295	1.78688
	1771.85	2.95388	1.71869
	1773.75	2.6475	1.62711
	1775.65	2.56595	1.60186
	1777.55	2.46623	1.57042
	1779.45	2.17853	1.47598
	1781.35	2.13396	1.46081
	1783.25	2.01553	1.41969
	1785.15	2.3641	1.53756
	1787.05	2.47436	1.57301
	1788.95	2.66366	1.63207
	1790.85	2.62529	1.62028
	1792.75	2.77792	1.66671
	1794.65	2.82162	1.67977
	1796.55	2.71226	1.64689
	1798.45	2.68718	1.63926
	1800.35	2.64726	1.62704
	1802.25	2.6135	1.61663
	1804.15	2.60658	1.61449
	1806.05	2.8026	1.6741
	1807.95	2.85332	1.68918
	1809.85	3.07952	1.75486
	1811.75	2.94446	1.71594
	1813.65	2.93602	1.71348
	1815.56	2.87189	1.69467
	1817.46	3.06291	1.75012
	1819.36	3.36995	1.83574
	1821.26	3.28003	1.81108
	1823.16	3.14896	1.77453
	1825.06	3.24725	1.80201
	1826.96	3.54133	1.88184
	1828.86	3.60007	1.89738
	1830.76	3.56946	1.8893
	1832.66	3.54722	1.88341
	1834.56	3.30973	1.81927
	1836.46	3.58039	1.89219
	1838.36	3.91088	1.9776
	1840.26	4.24276	2.0598
	1842.16	4.41931	2.10221
	1844.06	4.87877	2.20879
	1845.96	5.68706	2.38476
	1847.86	6.43362	2.53646
	1849.76	7.52182	2.74259
	1851.66	8.83362	2.97214
	1853.56	9.91776	3.14925
	1855.46	11.0893	3.33007
	1857.36	12.5296	3.53972
	1859.26	14.5527	3.8148
	1861.16	16.5509	4.06828
	1863.06	18.8545	4.34218
	1864.96	20.8319	4.56419
	1866.86	22.9436	4.78995
	1868.76	24.6717	4.96706
	1870.66	26.1566	5.11436
	1872.56	27.7617	5.26894
	1874.47	28.9782	5.38314
	1876.37	30.0107	5.4782
	1878.27	30.5502	5.52722
	1880.17	31.1148	5.57806
	1882.07	31.4655	5.60941
	1883.97	31.2495	5.59012
	1885.87	30.9321	5.56166
	1887.77	30.2498	5.49999
	1889.67	29.2721	5.41037
	1891.57	28.0533	5.29654
	1893.47	26.5525	5.15291
	1895.37	25.0022	5.00022
	1897.27	23.2307	4.81983
	1899.17	21.2289	4.60748
	1901.07	19.0182	4.36099
	1902.97	16.7292	4.09013
	1904.87	14.8475	3.85325
	1906.77	12.7655	3.57288
	1908.67	10.7821	3.28361
	1910.57	8.98682	2.9978
	1912.47	7.51712	2.74174
	1914.37	5.95003	2.43927
	1916.27	4.76287	2.1824
	1918.17	3.64625	1.90951
	1920.07	2.87845	1.6966
	1921.97	2.31738	1.52229
	1923.87	1.97078	1.40384
	1925.77	1.80049	1.34182
	1927.67	1.71829	1.31084
	1929.57	1.52986	1.23687
	1931.48	1.39868	1.18266
	1933.38	1.1223	1.05939
	1935.28	0.760614	0.872132
	1937.18	0.636712	0.797942
	1939.08	0.530132	0.728102
	1940.98	0.309827	0.556621
	1942.88	0.17986	0.424099
	1944.78	-0.0395334	0.19883
	1946.68	-0.191387	0.437478
	1948.58	-0.31962	0.565349
	1950.48	-0.174069	0.417216
	1952.38	-0.0782893	0.279802
	1954.28	0.0378116	0.194452
	1956.18	-0.0455034	0.213315
	1958.08	-0.228902	0.478437
	1959.98	-0.357643	0.598032
	1961.88	-0.376105	0.613274
	1963.78	-0.0727813	0.26978
	1965.68	0.40091	0.633175
	1967.58	0.563488	0.750658
	1969.48	0.489987	0.699991
	1971.38	0.480579	0.693238
	1973.28	0.479225	0.692261
	1975.18	0.796647	0.892551
	1977.08	0.762252	0.87307
	1978.98	0.797392	0.892968
	1980.88	0.804006	0.896664
	1982.78	0.785088	0.886052
	1984.68	0.708157	0.841521
	1986.58	0.655315	0.809515
	1988.48	0.585162	0.764959
	1990.39	0.546658	0.739364
	1992.29	0.423668	0.650898
	1994.19	0.361755	0.601461
	1996.09	0.113415	0.336771
	1997.99	-0.0490023	0.221365
	1999.89	-0.171311	0.413897
	2001.79	-0.226223	0.475629
	2003.69	-0.176591	0.420227
	2005.59	-0.00199028	0.0446126
	2007.49	0.139679	0.373737
	2009.39	0.0071811	0.0847414
	2011.29	0.150471	0.387905
	2013.19	0.120732	0.347466
	2015.09	0.0828956	0.287916
	2016.99	0.0615424	0.248078
	2018.89	0.211828	0.460248
	2020.79	0.182853	0.427614
	2022.69	0.220986	0.470092
	2024.59	0.22265	0.471858
	2026.49	0.107983	0.328608
	2028.39	0.00122479	0.0349971
	2030.29	0.155855	0.394785
	2032.19	0.11189	0.3345
	2034.09	0.153989	0.392414
	2035.99	-0.0148994	0.122063
	2037.89	0.0598939	0.244732
	2039.79	0.0436038	0.208815
	2041.69	0.10762	0.328055
	2043.59	0.0895216	0.299202
	2045.49	0.14339	0.378669
	2047.39	0.0232808	0.152581
	2049.3	-0.0758805	0.275464
	2051.2	0.0455799	0.213495
	2053.1	-0.0880129	0.29667
	2055	-0.161298	0.401619
	2056.9	-0.0526814	0.229524
	2058.8	0.0732477	0.270643
	2060.7	0.0323235	0.179787
	2062.6	0.119688	0.34596
	2064.5	0.170918	0.413422
	2066.4	0.118344	0.344011
	2068.3	0.108822	0.329882
	2070.2	0.222606	0.471811
	2072.1	0.376983	0.613989
	2074	0.325536	0.570558
	2075.9	0.382554	0.61851
	2077.8	0.336759	0.58031
	2079.7	0.440354	0.663592
	2081.6	0.392681	0.626643
	2083.5	0.681909	0.825778
	2085.4	0.937697	0.968348
	2087.3	1.05676	1.02799
	2089.2	0.927669	0.963156
	2091.1	1.04766	1.02355
	2093	1.07509	1.03686
	2094.9	1.34534	1.15989
	2096.8	1.38431	1.17657
	2098.7	1.29106	1.13625
	2100.6	1.22294	1.10587
	2102.5	1.30535	1.14252
	2104.4	1.43894	1.19956
	2106.31	1.49501	1.2227
	2108.21	1.63078	1.27702
	2110.11	1.53263	1.23799
	2112.01	1.41863	1.19106
	2113.91	1.5905	1.26115
	2115.81	1.7145	1.30939
	2117.71	1.59623	1.26342
	2119.61	1.23475	1.11119
	2121.51	1.17893	1.08579
	2123.41	1.23772	1.11253
	2125.31	1.38168	1.17545
	2127.21	1.4664	1.21095
	2129.11	1.38406	1.17646
	2131.01	1.05882	1.02899
	2132.91	0.507244	0.71221
	2134.81	0.230104	0.479691
	2136.71	0.0041664	0.0645476
	2138.61	0.0135528	0.116416
	2140.51	0.139986	0.374147
	2142.41	0.0212552	0.145792
	2144.31	-0.0904737	0.300788
	2146.21	-0.0138632	0.117742
	2148.11	0.0707018	0.265898
	2150.01	0.177576	0.421398
	2151.91	0.28407	0.532982
	2153.81	0.321816	0.567288
	2155.71	0.208119	0.4562
	2157.61	-0.0139608	0.118156
	2159.51	0.0236181	0.153682
	2161.41	0.0351788	0.18756
	2163.31	0.136829	0.369904
	2165.22	0.0412263	0.203043
	2167.12	-0.0040313	0.0634925
	2169.02	0.00254689	0.0504667
	2170.92	0.129155	0.359381
	2172.82	0.122082	0.349402
	2174.72	-0.0856384	0.29264
	2176.62	-0.0556795	0.235965
	2178.52	0.0548101	0.234116
	2180.42	0.203659	0.451286
	2182.32	0.0176757	0.13295
	2184.22	0.0393903	0.19847
	2186.12	0.0253363	0.159174
	2188.02	0.0141986	0.119158
	2189.92	-0.139242	0.373152
	2191.82	-0.0558857	0.236402
	2193.72	-0.0252365	0.15886
	2195.62	0.124776	0.353237
	2197.52	0.117386	0.342616
	2199.42	-0.0777315	0.278804
	2201.32	-0.0852087	0.291905
	2203.22	0.0463612	0.215317
