Generated file C:/Users/didvk/Downloads/Dioptas_Win64_0.5.0/1_mask&dat&fxye_1position/27_ReMoB2_1080psi_noRuby_S_P1_C1_D1w_169.fxye using DIOPTAS
# == pyFAI calibration ==
# Distance Sample to Detector: 0.21643023575112377 m
# PONI: 8.848e-02, 8.638e-02 m
# Rotations: 0.008179 -0.001145 -0.000000 rad
# 
# == Fit2d calibration ==
# Distance Sample-beamCenter: 216.438 mm
# Center: x=491.896, y=512.970 pix
# Tilt: 0.473 deg  TiltPlanRot: -172.032 deg
# 
# Detector Pilatus CdTe 1M	 PixelSize= 1.720e-04, 1.720e-04 m
#    Detector has a mask: True 
#    Detector has a dark current: False 
#    detector has a flat field: False 
# 
# Wavelength: 4.133e-11 m
# Mask applied: None
# Dark current applied: None
# Flat field applied: None
# Polarization factor: None
# Normalization factor: None
BANK	1	1006	1006 CONS	293.393	1.90033 0.4133 0.0 FXYE
	293.393	0.490529	0.700378
	295.294	-0.0480644	0.219236
	297.194	0.381262	0.617464
	299.094	0.927933	0.963293
	300.995	1.24573	1.11612
	302.895	1.68203	1.29693
	304.795	1.79832	1.34101
	306.696	1.34314	1.15894
	308.596	1.11059	1.05385
	310.496	0.741288	0.860981
	312.397	0.258397	0.508328
	314.297	-0.16063	0.400786
	316.197	0.0518621	0.227732
	318.098	1.01467	1.00731
	319.998	1.32072	1.14922
	321.898	1.66784	1.29145
	323.799	1.23275	1.11029
	325.699	1.21051	1.10023
	327.599	1.14433	1.06974
	329.5	1.08967	1.04387
	331.4	1.39731	1.18208
	333.3	1.48961	1.2205
	335.201	1.42009	1.19168
	337.101	1.62072	1.27308
	339.001	1.32742	1.15214
	340.902	1.37686	1.1734
	342.802	1.02741	1.01361
	344.702	0.700595	0.837016
	346.603	0.747023	0.864305
	348.503	1.41697	1.19037
	350.403	1.75196	1.32362
	352.304	1.68602	1.29847
	354.204	1.70092	1.3042
	356.104	2.44447	1.56348
	358.005	4.21445	2.05291
	359.905	6.42492	2.53474
	361.805	9.26838	3.0444
	363.706	10.4266	3.22902
	365.606	10.5643	3.25028
	367.506	9.02838	3.00473
	369.407	7.42917	2.72565
	371.307	6.15111	2.48014
	373.207	5.47143	2.33911
	375.108	4.89856	2.21327
	377.008	3.57411	1.89053
	378.908	2.3166	1.52204
	380.808	1.23282	1.11033
	382.709	1.20648	1.0984
	384.609	0.985835	0.992892
	386.509	0.888929	0.94283
	388.41	0.284726	0.533597
	390.31	0.0134546	0.115994
	392.21	0.0423312	0.205745
	394.111	0.285588	0.534404
	396.011	0.722055	0.849738
	397.911	1.05738	1.02829
	399.812	1.43137	1.1964
	401.712	1.05113	1.02525
	403.612	1.27713	1.1301
	405.513	1.19074	1.09121
	407.413	1.45667	1.20693
	409.313	0.806035	0.897794
	411.214	0.196413	0.443185
	413.114	0.311212	0.557864
	415.014	0.359017	0.59918
	416.915	-0.00106552	0.0326423
	418.815	0.178445	0.422427
	420.715	-0.0581016	0.241043
	422.616	0.185109	0.430243
	424.516	0.324866	0.56997
	426.416	0.478938	0.692053
	428.317	0.341	0.583952
	430.217	0.00117219	0.0342372
	432.117	0.136317	0.369211
	434.018	0.470233	0.685735
	435.918	1.02466	1.01226
	437.818	1.32298	1.15021
	439.719	0.986071	0.993011
	441.619	0.105276	0.324463
	443.519	0.28105	0.530142
	445.42	0.672825	0.820259
	447.32	1.23915	1.11317
	449.22	1.00045	1.00022
	451.121	0.42394	0.651107
	453.021	0.162554	0.40318
	454.921	0.256797	0.506752
	456.822	0.666404	0.816336
	458.722	0.765419	0.874882
	460.622	0.472891	0.68767
	462.523	-0.0220152	0.148375
	464.423	-0.0432181	0.20789
	466.323	0.732492	0.855857
	468.224	1.11984	1.05822
	470.124	0.948791	0.974059
	472.024	0.463632	0.680905
	473.924	0.386422	0.621628
	475.825	0.328985	0.573572
	477.725	1.05987	1.0295
	479.625	1.26865	1.12635
	481.526	0.940102	0.969588
	483.426	0.430019	0.655758
	485.326	0.605763	0.778308
	487.227	0.855528	0.924947
	489.127	0.709519	0.84233
	491.027	0.905376	0.951513
	492.928	0.875463	0.935662
	494.828	1.15526	1.07483
	496.728	0.69082	0.831156
	498.629	0.533285	0.730263
	500.529	0.13628	0.369162
	502.429	0.369044	0.60749
	504.33	0.0295746	0.171973
	506.23	-0.14579	0.381825
	508.13	0.0222781	0.149259
	510.031	0.626541	0.791543
	511.931	0.733387	0.85638
	513.831	0.795433	0.891871
	515.732	0.584402	0.764462
	517.632	0.345638	0.58791
	519.532	-0.279313	0.528501
	521.433	-0.159146	0.398931
	523.333	0.269167	0.518813
	525.233	0.596851	0.772561
	527.134	0.564012	0.751007
	529.034	0.334445	0.578312
	530.934	0.670814	0.819032
	532.835	0.578832	0.76081
	534.735	0.463574	0.680863
	536.635	0.435888	0.660218
	538.536	0.50416	0.710042
	540.436	0.365047	0.604191
	542.336	0.126806	0.356099
	544.237	0.637472	0.798418
	546.137	0.969535	0.984649
	548.037	1.34637	1.16033
	549.938	1.33197	1.15411
	551.838	1.49475	1.2226
	553.738	1.28547	1.13379
	555.639	1.0992	1.04843
	557.539	0.94948	0.974413
	559.439	0.646009	0.803747
	561.34	0.522365	0.722749
	563.24	0.441356	0.664346
	565.14	0.278623	0.527848
	567.041	-0.0155158	0.124562
	568.941	-0.206511	0.454435
	570.841	-0.0885138	0.297513
	572.741	0.0929482	0.304874
	574.642	-0.0714216	0.267248
	576.542	0.147597	0.384184
	578.442	0.161117	0.401394
	580.343	0.377262	0.614216
	582.243	0.657844	0.811076
	584.143	0.720336	0.848726
	586.044	0.533762	0.73059
	587.944	0.304391	0.551716
	589.844	0.16472	0.405857
	591.745	0.157405	0.396742
	593.645	0.190308	0.436243
	595.545	0.831939	0.912107
	597.446	1.61117	1.26932
	599.346	1.82158	1.34966
	601.246	1.48327	1.2179
	603.147	1.21838	1.1038
	605.047	1.30203	1.14107
	606.947	1.59256	1.26197
	608.848	1.68948	1.2998
	610.748	1.70472	1.30565
	612.648	1.43412	1.19755
	614.549	1.41299	1.18869
	616.449	1.06535	1.03216
	618.349	0.527951	0.726602
	620.25	0.325126	0.570198
	622.15	0.364889	0.60406
	624.05	0.313811	0.560188
	625.951	0.146041	0.382153
	627.851	0.657041	0.810581
	629.751	0.634933	0.796827
	631.652	0.644186	0.802612
	633.552	0.517492	0.719369
	635.452	0.593923	0.770664
	637.353	0.852186	0.923139
	639.253	0.221385	0.470516
	641.153	-0.159229	0.399035
	643.054	-0.0453479	0.21295
	644.954	0.427974	0.654197
	646.854	0.482475	0.694605
	648.755	0.211505	0.459897
	650.655	0.296449	0.544471
	652.555	0.393687	0.627445
	654.456	0.62631	0.791397
	656.356	0.726354	0.852264
	658.256	0.971508	0.985651
	660.157	1.30798	1.14367
	662.057	1.91432	1.38359
	663.957	2.8797	1.69697
	665.857	4.10572	2.02626
	667.758	5.58941	2.36419
	669.658	6.33793	2.51753
	671.558	6.26948	2.50389
	673.459	4.77748	2.18574
	675.359	3.13613	1.77091
	677.259	1.76985	1.33036
	679.16	1.03854	1.01909
	681.06	0.570675	0.75543
	682.96	0.445555	0.667499
	684.861	0.176535	0.420161
	686.761	0.381789	0.617891
	688.661	-0.243856	0.493818
	690.562	0.0403223	0.200804
	692.462	-0.000560071	0.0236658
	694.362	0.493704	0.702641
	696.263	0.376332	0.613459
	698.163	0.73765	0.858866
	700.063	1.03136	1.01556
	701.964	1.8866	1.37353
	703.864	3.40715	1.84585
	705.764	4.94349	2.2234
	707.665	6.89156	2.62518
	709.565	8.89357	2.98221
	711.465	10.47	3.23574
	713.366	11.843	3.44136
	715.266	13.0481	3.61222
	717.166	15.0513	3.8796
	719.067	16.3732	4.04639
	720.967	18.8308	4.33944
	722.867	22.1364	4.70494
	724.768	27.0648	5.20238
	726.668	33.6926	5.80454
	728.568	39.1869	6.25995
	730.469	44.3019	6.65596
	732.369	45.8691	6.77268
	734.269	44.2704	6.6536
	736.17	39.3714	6.27467
	738.07	35.2079	5.93363
	739.97	29.891	5.46727
	741.871	25.3331	5.0332
	743.771	21.1378	4.59758
	745.671	17.9085	4.23184
	747.572	15.6383	3.95453
	749.472	14.1428	3.76069
	751.372	12.7599	3.5721
	753.273	11.388	3.37462
	755.173	10.1509	3.18605
	757.073	9.26347	3.0436
	758.973	8.42302	2.90224
	760.874	7.26226	2.69486
	762.774	6.65736	2.58019
	764.674	6.28146	2.50628
	766.575	6.05367	2.46042
	768.475	5.94613	2.43847
	770.375	5.66387	2.37989
	772.276	5.75039	2.398
	774.176	5.6005	2.36654
	776.076	5.54501	2.35478
	777.977	4.98443	2.23258
	779.877	4.99598	2.23517
	781.777	5.17664	2.27522
	783.678	5.12002	2.26275
	785.578	4.78766	2.18807
	787.478	4.21569	2.05322
	789.379	3.20592	1.79051
	791.279	3.09991	1.76066
	793.179	2.92547	1.7104
	795.08	3.12261	1.76709
	796.98	3.28418	1.81223
	798.88	3.47102	1.86307
	800.781	3.11224	1.76416
	802.681	2.68591	1.63888
	804.581	1.93388	1.39064
	806.482	1.72482	1.31332
	808.382	1.42778	1.1949
	810.282	1.36514	1.16839
	812.183	1.19411	1.09275
	814.083	1.08335	1.04084
	815.983	0.833902	0.913182
	817.884	0.44348	0.665943
	819.784	0.326045	0.571003
	821.684	0.0485244	0.220282
	823.585	0.0471788	0.217207
	825.485	0.222142	0.47132
	827.385	0.305544	0.552761
	829.286	0.572418	0.756583
	831.186	0.312915	0.559388
	833.086	0.0133072	0.115357
	834.987	0.136153	0.368989
	836.887	0.139357	0.373306
	838.787	0.368659	0.607173
	840.688	-0.0318019	0.178331
	842.588	0.182018	0.426635
	844.488	0.059108	0.243121
	846.389	0.173731	0.41681
	848.289	0.248419	0.498416
	850.189	0.312348	0.558881
	852.089	0.499157	0.70651
	853.99	0.605708	0.778272
	855.89	0.727754	0.853085
	857.79	0.419804	0.647923
	859.691	-0.0445942	0.211173
	861.591	-0.239672	0.489563
	863.491	-0.0634392	0.251871
	865.392	0.544422	0.73785
	867.292	0.43985	0.663212
	869.192	0.138172	0.371715
	871.093	-0.0851534	0.291811
	872.993	0.119819	0.346149
	874.893	0.151953	0.389811
	876.794	0.126292	0.355375
	878.694	-0.0372838	0.19309
	880.594	-0.00484944	0.0696379
	882.495	-0.141582	0.376274
	884.395	-0.425593	0.652375
	886.295	-0.181125	0.425587
	888.196	0.00831279	0.0911745
	890.096	-0.0617471	0.24849
	891.996	-0.335259	0.579016
	893.897	-0.452971	0.673031
	895.797	-0.168666	0.41069
	897.697	-0.0267771	0.163637
	899.598	0.0979761	0.313011
	901.498	0.23879	0.488661
	903.398	0.302355	0.549868
	905.299	0.288935	0.537527
	907.199	0.26733	0.517039
	909.099	0.00318335	0.0564211
	911	-0.0161388	0.127039
	912.9	-0.212579	0.461062
	914.8	0.0305533	0.174795
	916.701	0.414889	0.644119
	918.601	0.438291	0.662035
	920.501	0.536242	0.732285
	922.402	0.651317	0.807042
	924.302	1.19571	1.09349
	926.202	1.71566	1.30983
	928.103	2.0195	1.42109
	930.003	2.43338	1.55993
	931.903	3.19142	1.78646
	933.804	4.36497	2.08925
	935.704	5.56775	2.35961
	937.604	7.00514	2.64672
	939.505	8.42915	2.9033
	941.405	10.2559	3.20249
	943.305	12.7068	3.56466
	945.206	15.899	3.98736
	947.106	19.7049	4.43902
	949.006	24.3077	4.93028
	950.906	30.9557	5.56378
	952.807	39.3493	6.2729
	954.707	51.3974	7.1692
	956.607	67.1943	8.19721
	958.508	88.2125	9.39215
	960.408	115.255	10.7357
	962.308	148.365	12.1805
	964.209	187.538	13.6944
	966.109	226.265	15.0421
	968.009	261.318	16.1653
	969.91	284.734	16.8741
	971.81	296.857	17.2295
	973.71	297.001	17.2337
	975.611	289.28	17.0082
	977.511	274.015	16.5534
	979.411	255.323	15.9788
	981.312	237.176	15.4005
	983.212	219.887	14.8286
	985.112	204.164	14.2886
	987.013	189.576	13.7686
	988.913	177.057	13.3063
	990.813	165.145	12.8509
	992.714	152.051	12.3309
	994.614	139.706	11.8197
	996.514	127.37	11.2858
	998.415	116.714	10.8034
	1000.31	105.186	10.256
	1002.22	97.2878	9.86346
	1004.12	89.7775	9.4751
	1006.02	84.1007	9.17064
	1007.92	79.5325	8.9181
	1009.82	75.1175	8.66704
	1011.72	71.4162	8.45081
	1013.62	67.9613	8.24386
	1015.52	64.8592	8.05352
	1017.42	61.0937	7.81624
	1019.32	57.4898	7.5822
	1021.22	53.9208	7.34308
	1023.12	49.9783	7.06954
	1025.02	45.7408	6.76319
	1026.92	41.2884	6.42561
	1028.82	36.9446	6.07821
	1030.72	33.4172	5.78076
	1032.62	29.9839	5.47575
	1034.52	26.5556	5.15321
	1036.42	23.246	4.82141
	1038.32	20.7892	4.55951
	1040.22	18.1676	4.26234
	1042.12	15.4934	3.93616
	1044.02	12.9507	3.5987
	1045.92	11.0047	3.31734
	1047.82	9.23013	3.03811
	1049.72	7.68841	2.7728
	1051.62	6.12021	2.47391
	1053.52	4.6735	2.16183
	1055.42	3.45483	1.85872
	1057.32	2.62392	1.61985
	1059.23	1.55421	1.24668
	1061.13	0.651566	0.807196
	1063.03	0.0579168	0.240659
	1064.93	-0.212133	0.46058
	1066.83	-0.583904	0.764136
	1068.73	-0.94412	0.971659
	1070.63	-1.08313	1.04073
	1072.53	-0.870604	0.933062
	1074.43	-0.700343	0.836865
	1076.33	-0.293228	0.541505
	1078.23	0.831544	0.91189
	1080.13	1.91121	1.38247
	1082.03	2.87031	1.6942
	1083.93	3.92877	1.98211
	1085.83	4.95133	2.22516
	1087.73	6.15333	2.48059
	1089.63	6.46903	2.54343
	1091.53	6.96558	2.63924
	1093.43	6.99478	2.64477
	1095.33	6.64362	2.57752
	1097.23	6.11268	2.47238
	1099.13	5.07015	2.2517
	1101.03	4.14384	2.03564
	1102.93	3.32483	1.82341
	1104.83	2.58573	1.60802
	1106.73	1.78402	1.33567
	1108.63	1.28065	1.13166
	1110.53	0.802101	0.895601
	1112.43	0.660191	0.812521
	1114.33	0.508811	0.71331
	1116.23	0.24716	0.497152
	1118.14	0.106821	0.326834
	1120.04	-0.0776457	0.27865
	1121.94	0.467572	0.683792
	1123.84	0.914257	0.956168
	1125.74	1.35882	1.16568
	1127.64	1.60115	1.26536
	1129.54	1.63449	1.27847
	1131.44	1.51903	1.23249
	1133.34	1.58395	1.25855
	1135.24	1.50872	1.2283
	1137.14	1.292	1.13666
	1139.04	1.03621	1.01794
	1140.94	1.10196	1.04974
	1142.84	1.48845	1.22002
	1144.74	1.6152	1.27091
	1146.64	1.38805	1.17816
	1148.54	1.19893	1.09496
	1150.44	1.47028	1.21255
	1152.34	1.59987	1.26486
	1154.24	1.60072	1.26519
	1156.14	1.48418	1.21827
	1158.04	1.5118	1.22955
	1159.94	1.23366	1.1107
	1161.84	1.13909	1.06728
	1163.74	1.0766	1.0376
	1165.64	1.0309	1.01533
	1167.54	0.896047	0.946598
	1169.44	1.10459	1.05099
	1171.34	0.981401	0.990657
	1173.24	0.936639	0.967801
	1175.15	0.931624	0.965206
	1177.05	0.897017	0.94711
	1178.95	0.618818	0.78665
	1180.85	0.634244	0.796395
	1182.75	0.980865	0.990386
	1184.65	0.728127	0.853304
	1186.55	0.179905	0.424152
	1188.45	-0.361538	0.601281
	1190.35	-0.435846	0.660186
	1192.25	-0.546211	0.739061
	1194.15	-0.527204	0.726088
	1196.05	-0.327943	0.572663
	1197.95	-0.472451	0.687351
	1199.85	-0.419365	0.647584
	1201.75	-0.373676	0.611291
	1203.65	-0.207486	0.455507
	1205.55	-0.204763	0.452508
	1207.45	-0.0768431	0.277206
	1209.35	-0.227355	0.476817
	1211.25	-0.309061	0.555932
	1213.15	0.0959352	0.309734
	1215.05	0.462331	0.679949
	1216.95	0.755827	0.869383
	1218.85	1.0031	1.00155
	1220.75	1.87915	1.37082
	1222.65	2.74985	1.65827
	1224.55	3.68113	1.91863
	1226.45	4.68571	2.16465
	1228.35	5.55003	2.35585
	1230.25	6.774	2.60269
	1232.15	8.21306	2.86584
	1234.06	9.97676	3.1586
	1235.96	11.9797	3.46117
	1237.86	14.4147	3.79666
	1239.76	17.3814	4.1691
	1241.66	21.1705	4.60114
	1243.56	25.65	5.06458
	1245.46	31.3509	5.59919
	1247.36	38.8568	6.23352
	1249.26	48.3893	6.95624
	1251.16	61.7501	7.85812
	1253.06	77.2058	8.78668
	1254.96	97.6312	9.88085
	1256.86	124.157	11.1426
	1258.76	155.753	12.4801
	1260.66	196.125	14.0045
	1262.56	242.653	15.5773
	1264.46	296.967	17.2327
	1266.36	356.254	18.8747
	1268.26	412.861	20.319
	1270.16	464.485	21.5519
	1272.06	501.667	22.3979
	1273.96	525.62	22.9264
	1275.86	532.657	23.0794
	1277.76	527.497	22.9673
	1279.66	506.834	22.513
	1281.56	478.365	21.8715
	1283.46	438.599	20.9427
	1285.36	391.788	19.7936
	1287.26	342.73	18.513
	1289.16	293.237	17.1242
	1291.06	242.859	15.5839
	1292.97	199.006	14.107
	1294.87	158.86	12.604
	1296.77	126.437	11.2444
	1298.67	100.64	10.0319
	1300.57	80.509	8.97268
	1302.47	66.3886	8.14792
	1304.37	54.9575	7.41333
	1306.27	47.2173	6.87148
	1308.17	40.8279	6.38967
	1310.07	35.6962	5.97463
	1311.97	30.963	5.56444
	1313.87	27.232	5.21843
	1315.77	24.4358	4.94326
	1317.67	22.0502	4.69576
	1319.57	20.1706	4.49117
	1321.47	18.4626	4.29681
	1323.37	16.7799	4.09633
	1325.27	14.7367	3.83884
	1327.17	13.0954	3.61875
	1329.07	12.0201	3.46701
	1330.97	11.0252	3.32042
	1332.87	10.2398	3.19996
	1334.77	9.10445	3.01736
	1336.67	8.01317	2.83075
	1338.57	7.02	2.64953
	1340.47	6.05048	2.45977
	1342.37	5.3707	2.31748
	1344.27	4.9726	2.22993
	1346.17	4.37681	2.09208
	1348.07	3.82737	1.95637
	1349.98	3.34058	1.82773
	1351.88	3.25154	1.8032
	1353.78	2.70137	1.64358
	1355.68	2.05385	1.43313
	1357.58	1.47231	1.21339
	1359.48	1.35077	1.16223
	1361.38	1.2679	1.12601
	1363.28	1.14508	1.07008
	1365.18	0.94917	0.974253
	1367.08	1.04169	1.02063
	1368.98	1.08225	1.04031
	1370.88	1.08333	1.04083
	1372.78	0.77039	0.877719
	1374.68	0.786438	0.886814
	1376.58	0.895139	0.946118
	1378.48	1.30083	1.14054
	1380.38	1.57325	1.25429
	1382.28	1.69262	1.30101
	1384.18	1.71356	1.30903
	1386.08	1.45447	1.20601
	1387.98	1.31277	1.14576
	1389.88	1.05607	1.02765
	1391.78	1.12298	1.05971
	1393.68	1.11093	1.05401
	1395.58	1.18487	1.08852
	1397.48	0.90736	0.952554
	1399.38	0.781081	0.883788
	1401.28	0.589063	0.767504
	1403.18	0.547997	0.740268
	1405.08	0.511939	0.715499
	1406.98	0.384272	0.619897
	1408.89	0.0809924	0.284592
	1410.79	-0.0465887	0.215844
	1412.69	0.0170543	0.130592
	1414.59	0.292773	0.541085
	1416.49	-0.00936988	0.0967981
	1418.39	-0.230745	0.480359
	1420.29	-0.705362	0.839858
	1422.19	-0.570097	0.755047
	1424.09	-0.404366	0.635898
	1425.99	-0.452219	0.672473
	1427.89	-0.439967	0.6633
	1429.79	-0.302707	0.550188
	1431.69	0.00308071	0.0555041
	1433.59	0.339792	0.582916
	1435.49	0.856043	0.925226
	1437.39	1.00851	1.00425
	1439.29	1.02453	1.01219
	1441.19	1.28565	1.13387
	1443.09	2.06439	1.4368
	1444.99	2.88857	1.69958
	1446.89	3.19363	1.78707
	1448.79	3.61668	1.90176
	1450.69	4.16127	2.03992
	1452.59	5.14988	2.26934
	1454.49	5.62356	2.37141
	1456.39	5.83052	2.41465
	1458.29	6.11344	2.47254
	1460.19	6.33326	2.5166
	1462.09	6.64481	2.57775
	1463.99	7.00716	2.6471
	1465.89	7.01583	2.64874
	1467.8	7.12963	2.67014
	1469.7	7.21443	2.68597
	1471.6	7.06175	2.6574
	1473.5	6.7705	2.60202
	1475.4	6.05707	2.46111
	1477.3	5.47885	2.34069
	1479.2	5.13122	2.26522
	1481.1	4.66709	2.16035
	1483	4.42959	2.10466
	1484.9	3.56911	1.88921
	1486.8	3.60398	1.89842
	1488.7	3.33646	1.8266
	1490.6	3.26956	1.80819
	1492.5	2.78411	1.66857
	1494.4	2.34142	1.53017
	1496.3	1.59364	1.26239
	1498.2	1.08488	1.04158
	1500.1	0.823692	0.907575
	1502	0.594923	0.771312
	1503.9	0.572295	0.756502
	1505.8	0.742659	0.861776
	1507.7	0.720585	0.848873
	1509.6	0.410628	0.640803
	1511.5	0.41866	0.64704
	1513.4	0.32131	0.566842
	1515.3	0.531108	0.728771
	1517.2	0.0571215	0.239001
	1519.1	-0.0473468	0.217593
	1521	-0.100761	0.317428
	1522.9	0.12395	0.352066
	1524.81	0.0424594	0.206057
	1526.71	-0.250675	0.500675
	1528.61	-0.143597	0.378943
	1530.51	-0.105496	0.324802
	1532.41	0.0635823	0.252155
	1534.31	0.0546966	0.233873
	1536.21	-0.0198879	0.141025
	1538.11	-0.171466	0.414085
	1540.01	-0.0201974	0.142118
	1541.91	0.154041	0.392481
	1543.81	0.0128357	0.113295
	1545.71	-0.0182824	0.135212
	1547.61	0.233625	0.483348
	1549.51	0.212174	0.460623
	1551.41	0.411749	0.641677
	1553.31	0.379812	0.616289
	1555.21	0.463526	0.680827
	1557.11	0.511038	0.714869
	1559.01	0.72344	0.850553
	1560.91	0.740536	0.860544
	1562.81	0.775927	0.880867
	1564.71	0.64102	0.800637
	1566.61	0.560693	0.748794
	1568.51	0.509588	0.713855
	1570.41	0.596907	0.772598
	1572.31	0.577942	0.760225
	1574.21	0.612196	0.782429
	1576.11	0.600538	0.774944
	1578.01	0.690008	0.830667
	1579.91	0.908734	0.953276
	1581.81	1.12131	1.05892
	1583.72	1.08678	1.04249
	1585.62	0.854276	0.924271
	1587.52	0.749347	0.865648
	1589.42	0.931454	0.965119
	1591.32	0.835206	0.913896
	1593.22	0.914715	0.956407
	1595.12	1.02877	1.01428
	1597.02	1.0918	1.04489
	1598.92	0.646973	0.804347
	1600.82	0.690333	0.830863
	1602.72	0.555632	0.745407
	1604.62	0.707579	0.841177
	1606.52	0.366703	0.60556
	1608.42	0.391073	0.625359
	1610.32	-0.0108487	0.104157
	1612.22	-0.199237	0.44636
	1614.12	0.00102679	0.0320436
	1616.02	0.0961769	0.310124
	1617.92	-0.155632	0.394502
	1619.82	-0.120651	0.347349
	1621.72	0.123455	0.351362
	1623.62	0.0242471	0.155715
	1625.52	0.025147	0.158578
	1627.42	0.0256945	0.160295
	1629.32	0.1474	0.383928
	1631.22	0.309447	0.55628
	1633.12	0.498174	0.705814
	1635.02	0.610877	0.781586
	1636.92	0.670575	0.818886
	1638.82	0.591747	0.769251
	1640.73	0.799592	0.894199
	1642.63	1.39584	1.18146
	1644.53	1.96239	1.40085
	1646.43	2.36971	1.53939
	1648.33	2.75899	1.66102
	1650.23	3.43968	1.85464
	1652.13	3.95159	1.98786
	1654.03	4.48918	2.11877
	1655.93	4.77288	2.18469
	1657.83	5.53023	2.35164
	1659.73	6.90403	2.62755
	1661.63	8.39847	2.89801
	1663.53	9.74387	3.12152
	1665.43	11.2756	3.35791
	1667.33	13.0693	3.61515
	1669.23	15.2457	3.90457
	1671.13	17.2385	4.15192
	1673.03	19.6006	4.42726
	1674.93	21.915	4.68135
	1676.83	24.1556	4.91484
	1678.73	26.7969	5.17657
	1680.63	29.1759	5.40148
	1682.53	31.041	5.57144
	1684.43	32.6047	5.71005
	1686.33	33.6245	5.79867
	1688.23	34.5038	5.87399
	1690.13	34.7465	5.89462
	1692.03	34.8492	5.90332
	1693.93	34.8363	5.90223
	1695.83	34.4959	5.87332
	1697.73	33.4722	5.78552
	1699.64	32.0815	5.66405
	1701.54	30.936	5.56201
	1703.44	30.8554	5.55476
	1705.34	30.2878	5.50343
	1707.24	29.3114	5.414
	1709.14	27.9239	5.28431
	1711.04	26.666	5.16391
	1712.94	25.5466	5.05436
	1714.84	24.8783	4.98782
	1716.74	24.4604	4.94575
	1718.64	23.8053	4.87907
	1720.54	22.7469	4.76937
	1722.44	21.7208	4.66056
	1724.34	20.7664	4.55702
	1726.24	19.7143	4.44008
	1728.14	18.6332	4.31662
	1730.04	17.3699	4.16772
	1731.94	16.1749	4.02181
	1733.84	15.1637	3.89405
	1735.74	14.4808	3.80536
	1737.64	13.8033	3.71528
	1739.54	13.1719	3.62931
	1741.44	12.5073	3.53657
	1743.34	11.6059	3.40675
	1745.24	10.8118	3.28814
	1747.14	10.315	3.21169
	1749.04	9.79695	3.13001
	1750.94	9.01735	3.00289
	1752.84	8.26088	2.87417
	1754.74	7.55519	2.74867
	1756.64	6.83249	2.6139
	1758.55	6.34705	2.51934
	1760.45	5.96405	2.44214
	1762.35	5.54545	2.35488
	1764.25	5.19587	2.27945
	1766.15	4.90162	2.21396
	1768.05	4.56193	2.13587
	1769.95	4.09092	2.0226
	1771.85	3.56514	1.88816
	1773.75	3.20844	1.79121
	1775.65	2.79333	1.67133
	1777.55	2.69375	1.64127
	1779.45	2.51133	1.58472
	1781.35	2.37181	1.54007
	1783.25	2.41702	1.55468
	1785.15	2.39357	1.54712
	1787.05	2.69676	1.64218
	1788.95	2.65484	1.62937
	1790.85	2.52726	1.58974
	1792.75	2.38302	1.5437
	1794.65	2.46783	1.57093
	1796.55	2.33008	1.52646
	1798.45	2.37987	1.54268
	1800.35	2.22951	1.49315
	1802.25	2.30402	1.5179
	1804.15	2.45522	1.56691
	1806.05	2.61821	1.61809
	1807.95	2.57748	1.60545
	1809.85	2.47897	1.57448
	1811.75	2.30445	1.51804
	1813.65	2.1764	1.47526
	1815.56	2.4651	1.57006
	1817.46	2.61634	1.61751
	1819.36	2.99308	1.73005
	1821.26	3.13101	1.76946
	1823.16	2.81992	1.67926
	1825.06	2.542	1.59437
	1826.96	2.81567	1.678
	1828.86	2.93491	1.71316
	1830.76	3.02673	1.73975
	1832.66	2.99321	1.73009
	1834.56	2.95087	1.71781
	1836.46	2.94619	1.71645
	1838.36	3.00342	1.73304
	1840.26	3.25005	1.80279
	1842.16	3.52936	1.87866
	1844.06	4.11859	2.02943
	1845.96	4.34223	2.0838
	1847.86	4.68703	2.16496
	1849.76	5.12284	2.26337
	1851.66	6.11103	2.47205
	1853.56	7.14413	2.67285
	1855.46	8.22538	2.86799
	1857.36	9.25097	3.04154
	1859.26	10.5245	3.24415
	1861.16	11.8016	3.43535
	1863.06	13.6584	3.69573
	1864.96	16.1955	4.02436
	1866.86	18.4353	4.29364
	1868.76	20.4791	4.52539
	1870.66	21.9792	4.6882
	1872.56	24.0052	4.89951
	1874.47	25.5501	5.05471
	1876.37	26.8831	5.18489
	1878.27	27.7548	5.26828
	1880.17	28.694	5.35668
	1882.07	29.6321	5.44354
	1883.97	30.3068	5.50516
	1885.87	30.3311	5.50737
	1887.77	29.9772	5.47514
	1889.67	29.4362	5.42551
	1891.57	28.6548	5.35302
	1893.47	27.5727	5.25097
	1895.37	26.1228	5.11105
	1897.27	24.8676	4.98674
	1899.17	23.3148	4.82854
	1901.07	21.6	4.64758
	1902.97	19.8687	4.45744
	1904.87	18.2781	4.27529
	1906.77	16.3473	4.04318
	1908.67	14.6092	3.8222
	1910.57	12.5056	3.53632
	1912.47	10.2721	3.20502
	1914.37	8.23964	2.87048
	1916.27	6.49577	2.54868
	1918.17	5.05714	2.24881
	1920.07	3.89033	1.97239
	1921.97	3.0509	1.74668
	1923.87	2.29063	1.51348
	1925.77	1.85792	1.36305
	1927.67	1.58243	1.25795
	1929.57	1.37306	1.17177
	1931.48	1.49881	1.22426
	1933.38	1.48866	1.2201
	1935.28	1.45464	1.20608
	1937.18	1.31826	1.14815
	1939.08	0.981609	0.990762
	1940.98	0.744668	0.862942
	1942.88	0.46411	0.681256
	1944.78	0.361323	0.601101
	1946.68	0.096602	0.310809
	1948.58	-0.0861353	0.293488
	1950.48	0.0336418	0.183417
	1952.38	0.156844	0.396035
	1954.28	0.127789	0.357476
	1956.18	-0.212465	0.460939
	1958.08	-0.459126	0.677588
	1959.98	-0.509781	0.71399
	1961.88	-0.5069	0.711969
	1963.78	-0.303553	0.550956
	1965.68	0.0227443	0.150812
	1967.58	0.288066	0.536717
	1969.48	0.258797	0.508721
	1971.38	0.191877	0.438038
	1973.28	0.158836	0.398542
	1975.18	0.387377	0.622396
	1977.08	0.393105	0.626981
	1978.98	0.822182	0.906742
	1980.88	1.08343	1.04088
	1982.78	1.16429	1.07902
	1984.68	1.13518	1.06545
	1986.58	1.09555	1.04669
	1988.48	0.856374	0.925405
	1990.39	0.645024	0.803134
	1992.29	0.615018	0.784231
	1994.19	0.436832	0.660933
	1996.09	0.308626	0.555541
	1997.99	0.00749206	0.0865567
	1999.89	-0.217849	0.466743
	2001.79	-0.112113	0.334832
	2003.69	-0.078886	0.280866
	2005.59	0.0135739	0.116507
	2007.49	-0.0454174	0.213114
	2009.39	0.0240281	0.15501
	2011.29	0.00414524	0.0643835
	2013.19	0.130899	0.3618
	2015.09	0.177755	0.42161
	2016.99	0.212319	0.460781
	2018.89	0.296187	0.54423
	2020.79	0.331974	0.576172
	2022.69	0.389136	0.623807
	2024.59	0.444732	0.666883
	2026.49	0.523796	0.723737
	2028.39	0.568427	0.753941
	2030.29	0.397399	0.630396
	2032.19	0.296895	0.544881
	2034.09	0.304175	0.55152
	2035.99	0.129647	0.360065
	2037.89	-0.134548	0.366807
	2039.79	-0.108311	0.329106
	2041.69	0.00779847	0.0883089
	2043.59	0.0354152	0.188189
	2045.49	0.0138238	0.117575
	2047.39	0.216835	0.465655
	2049.3	0.331501	0.575761
	2051.2	0.190548	0.436518
	2053.1	-0.0539615	0.232296
	2055	-0.0608012	0.246579
	2056.9	0.0938265	0.306311
	2058.8	0.369697	0.608027
	2060.7	0.37656	0.613645
	2062.6	0.388223	0.623076
	2064.5	0.308437	0.555371
	2066.4	0.0197766	0.140629
	2068.3	-0.0726865	0.269604
	2070.2	0.0266824	0.163347
	2072.1	0.340722	0.583714
	2074	0.448776	0.669908
	2075.9	0.529625	0.727753
	2077.8	0.480031	0.692842
	2079.7	0.439114	0.662657
	2081.6	0.257656	0.507598
	2083.5	0.105864	0.325368
	2085.4	0.378354	0.615105
	2087.3	0.526751	0.725776
	2089.2	0.447807	0.669184
	2091.1	0.338386	0.58171
	2093	0.575002	0.758289
	2094.9	0.98925	0.994611
	2096.8	1.18966	1.09071
	2098.7	1.30291	1.14145
	2100.6	1.25915	1.12212
	2102.5	1.38932	1.17869
	2104.4	1.36544	1.16852
	2106.31	1.42942	1.19558
	2108.21	1.43602	1.19834
	2110.11	1.38619	1.17736
	2112.01	1.16088	1.07744
	2113.91	1.18344	1.08786
	2115.81	1.17097	1.08211
	2117.71	1.25455	1.12007
	2119.61	1.16015	1.0771
	2121.51	1.28369	1.133
	2123.41	1.38344	1.1762
	2125.31	1.44458	1.20191
	2127.21	1.6721	1.2931
	2129.11	1.86442	1.36544
	2131.01	1.32396	1.15063
	2132.91	0.699902	0.836601
	2134.81	0.393545	0.627331
	2136.71	0.265411	0.51518
	2138.61	0.13605	0.368849
	2140.51	-0.055874	0.236377
	2142.41	0.0136797	0.11696
	2144.31	0.186152	0.431453
	2146.21	0.452635	0.672781
	2148.11	0.376122	0.613288
	2150.01	0.283651	0.532589
	2151.91	-0.0145841	0.120765
	2153.81	0.0589559	0.242808
	2155.71	0.185363	0.430538
	2157.61	0.222008	0.471178
	2159.51	0.188585	0.434264
	2161.41	-0.000303026	0.0174076
	2163.31	-0.148763	0.385698
	2165.22	-0.0486285	0.220519
	2167.12	0.0360931	0.189982
	2169.02	0.149167	0.386221
	2170.92	0.351867	0.593184
	2172.82	0.171514	0.414142
	2174.72	0.00133668	0.0365606
	2176.62	0.0509253	0.225666
	2178.52	0.181156	0.425624
	2180.42	0.0997749	0.315872
	2182.32	0.0391909	0.197967
	2184.22	-0.173583	0.416633
	2186.12	-0.219778	0.468805
	2188.02	0.0566602	0.238034
	2189.92	0.24662	0.496608
	2191.82	0.108608	0.329558
	2193.72	-0.0749095	0.273696
	2195.62	-0.104184	0.322775
	2197.52	-0.0170374	0.130527
	2199.42	0.00514454	0.0717254
	2201.32	0.0550728	0.234676
	2203.22	-0.0218614	0.147856
