Generated file C:/Users/didvk/Downloads/Dioptas_Win64_0.5.0/1_mask&dat&fxye_1position/28_ReMoB2_1120psi_noRuby_S_P1_C1_D1w_175.fxye using DIOPTAS
# == pyFAI calibration ==
# Distance Sample to Detector: 0.21643023575112377 m
# PONI: 8.848e-02, 8.638e-02 m
# Rotations: 0.008179 -0.001145 -0.000000 rad
# 
# == Fit2d calibration ==
# Distance Sample-beamCenter: 216.438 mm
# Center: x=491.896, y=512.970 pix
# Tilt: 0.473 deg  TiltPlanRot: -172.032 deg
# 
# Detector Pilatus CdTe 1M	 PixelSize= 1.720e-04, 1.720e-04 m
#    Detector has a mask: True 
#    Detector has a dark current: False 
#    detector has a flat field: False 
# 
# Wavelength: 4.133e-11 m
# Mask applied: None
# Dark current applied: None
# Flat field applied: None
# Polarization factor: None
# Normalization factor: None
BANK	1	1006	1006 CONS	293.393	1.90033 0.4133 0.0 FXYE
	293.393	0.542558	0.736586
	295.294	0.120122	0.346587
	297.194	0.329387	0.573923
	299.094	0.86362	0.929311
	300.995	0.588945	0.767428
	302.895	0.623885	0.789864
	304.795	0.73239	0.855798
	306.696	0.849515	0.921691
	308.596	0.873308	0.934509
	310.496	0.397195	0.630234
	312.397	0.54236	0.736451
	314.297	0.108152	0.328864
	316.197	-0.102141	0.319595
	318.098	-0.029471	0.171671
	319.998	0.420319	0.64832
	321.898	0.559488	0.747989
	323.799	0.415441	0.644547
	325.699	1.00666	1.00332
	327.599	1.27174	1.12771
	329.5	1.83477	1.35454
	331.4	1.27271	1.12814
	333.3	1.34672	1.16048
	335.201	1.05944	1.02929
	337.101	1.59432	1.26266
	339.001	0.994224	0.997108
	340.902	1.17447	1.08373
	342.802	0.985673	0.992811
	344.702	0.889212	0.942981
	346.603	0.645728	0.803572
	348.503	0.590287	0.768301
	350.403	1.36911	1.17009
	352.304	1.64256	1.28162
	354.204	2.02226	1.42206
	356.104	2.27414	1.50802
	358.005	2.85749	1.69041
	359.905	3.81059	1.95207
	361.805	5.00559	2.23732
	363.706	6.93655	2.63373
	365.606	9.29234	3.04833
	367.506	9.95747	3.15555
	369.407	9.16504	3.02738
	371.307	7.15162	2.67425
	373.207	5.53322	2.35228
	375.108	3.86795	1.96671
	377.008	2.63248	1.62249
	378.908	2.12352	1.45723
	380.808	1.13818	1.06685
	382.709	0.359103	0.599252
	384.609	0.373354	0.611027
	386.509	0.863524	0.92926
	388.41	1.16102	1.07751
	390.31	1.28658	1.13427
	392.21	1.34216	1.15851
	394.111	0.91962	0.958968
	396.011	0.868997	0.9322
	397.911	1.1116	1.05432
	399.812	1.20757	1.09889
	401.712	0.909826	0.953848
	403.612	0.995645	0.99782
	405.513	0.635277	0.797042
	407.413	0.477994	0.691371
	409.313	0.461901	0.679633
	411.214	0.57263	0.756723
	413.114	0.746297	0.863885
	415.014	0.659065	0.811828
	416.915	0.674308	0.821162
	418.815	0.52968	0.727791
	420.715	0.331114	0.575425
	422.616	0.449124	0.670167
	424.516	0.260769	0.510655
	426.416	-0.0992022	0.314964
	428.317	-0.13239	0.363854
	430.217	0.0587033	0.242288
	432.117	0.164877	0.40605
	434.018	0.739926	0.86019
	435.918	1.20113	1.09596
	437.818	1.35784	1.16526
	439.719	1.08529	1.04177
	441.619	0.796594	0.892521
	443.519	0.474318	0.688708
	445.42	0.00045217	0.0212643
	447.32	-0.0823109	0.286899
	449.22	0.114763	0.338767
	451.121	0.315248	0.56147
	453.021	0.185881	0.431139
	454.921	0.236784	0.486604
	456.822	0.0925854	0.304279
	458.722	-0.18223	0.426884
	460.622	0.00144086	0.0379587
	462.523	0.4369	0.660984
	464.423	0.764486	0.874349
	466.323	1.03246	1.0161
	468.224	1.17146	1.08234
	470.124	0.857743	0.926144
	472.024	0.819746	0.905398
	473.924	0.354897	0.595732
	475.825	0.463258	0.680631
	477.725	0.456202	0.675427
	479.625	0.862909	0.928929
	481.526	0.789677	0.888638
	483.426	0.508988	0.713434
	485.326	0.263822	0.513636
	487.227	0.388871	0.623595
	489.127	0.502318	0.708744
	491.027	0.21717	0.466015
	492.928	0.29916	0.546955
	494.828	0.138108	0.371629
	496.728	0.066576	0.258023
	498.629	0.0814412	0.285379
	500.529	-0.039394	0.198479
	502.429	0.0969267	0.311331
	504.33	0.134424	0.366638
	506.23	-0.106278	0.326002
	508.13	0.0958538	0.309603
	510.031	0.224496	0.47381
	511.931	0.453452	0.673388
	513.831	0.404618	0.636096
	515.732	0.635188	0.796987
	517.632	0.682062	0.82587
	519.532	0.794307	0.891239
	521.433	0.373002	0.610739
	523.333	0.469628	0.685294
	525.233	0.728785	0.853689
	527.134	1.33672	1.15616
	529.034	1.11138	1.05422
	530.934	0.10964	0.33112
	532.835	-0.170431	0.412833
	534.735	0.00334329	0.0578212
	536.635	0.800223	0.894552
	538.536	1.14089	1.06812
	540.436	0.869524	0.932483
	542.336	0.253807	0.503793
	544.237	0.241427	0.491352
	546.137	0.76844	0.876607
	548.037	1.24743	1.11688
	549.938	1.13652	1.06607
	551.838	1.07219	1.03547
	553.738	0.500153	0.707215
	555.639	0.593893	0.770644
	557.539	0.40367	0.635351
	559.439	0.452722	0.672847
	561.34	0.440387	0.663617
	563.24	0.192061	0.438248
	565.14	-0.102572	0.320268
	567.041	0.537024	0.73282
	568.941	0.665904	0.816029
	570.841	0.402477	0.634411
	572.741	0.26827	0.517947
	574.642	0.693511	0.832773
	576.542	0.80822	0.899011
	578.442	0.887312	0.941972
	580.343	0.980442	0.990173
	582.243	0.419887	0.647987
	584.143	0.155626	0.394494
	586.044	0.32354	0.568805
	587.944	0.848193	0.920974
	589.844	1.11419	1.05555
	591.745	0.892637	0.944795
	593.645	0.607359	0.779332
	595.545	0.548967	0.740923
	597.446	0.71235	0.844008
	599.346	0.793249	0.890645
	601.246	0.64467	0.802914
	603.147	0.801854	0.895463
	605.047	1.06477	1.03188
	606.947	1.80878	1.34491
	608.848	2.3098	1.5198
	610.748	2.71767	1.64854
	612.648	2.24867	1.49956
	614.549	1.66681	1.29105
	616.449	1.10833	1.05277
	618.349	0.964572	0.982126
	620.25	1.33647	1.15606
	622.15	1.23383	1.11078
	624.05	1.18103	1.08675
	625.951	1.05457	1.02692
	627.851	0.960805	0.980207
	629.751	0.638809	0.799255
	631.652	-0.144198	0.379734
	633.552	0.10572	0.325146
	635.452	0.752881	0.867687
	637.353	1.03688	1.01828
	639.253	0.575866	0.758858
	641.153	0.427602	0.653913
	643.054	0.839776	0.916393
	644.954	1.31154	1.14523
	646.854	1.11779	1.05726
	648.755	0.320151	0.565819
	650.655	-0.0634503	0.251893
	652.555	-0.102798	0.320622
	654.456	0.211318	0.459693
	656.356	0.206804	0.454757
	658.256	0.270046	0.519659
	660.157	0.116705	0.341621
	662.057	0.33912	0.58234
	663.957	1.07428	1.03648
	665.857	1.95061	1.39664
	667.758	3.00108	1.73236
	669.658	4.14849	2.03678
	671.558	5.53296	2.35222
	673.459	5.6585	2.37876
	675.359	5.51682	2.34879
	677.259	4.2974	2.07302
	679.16	3.1578	1.77702
	681.06	1.7883	1.33727
	682.96	0.657292	0.810735
	684.861	0.719211	0.848063
	686.761	0.57671	0.759414
	688.661	0.393957	0.62766
	690.562	-0.0276894	0.166401
	692.462	0.159108	0.398883
	694.362	0.334504	0.578363
	696.263	0.431917	0.657204
	698.163	0.184981	0.430094
	700.063	0.488874	0.699195
	701.964	0.88726	0.941945
	703.864	1.28607	1.13405
	705.764	1.3679	1.16957
	707.665	1.61626	1.27132
	709.565	2.57558	1.60486
	711.465	4.23496	2.0579
	713.366	6.59693	2.56845
	715.266	8.56891	2.92727
	717.166	10.2382	3.19972
	719.067	11.8379	3.44063
	720.967	13.4435	3.66653
	722.867	15.3524	3.91821
	724.768	17.5143	4.18501
	726.668	21.2898	4.61409
	728.568	25.8067	5.08003
	730.469	32.7376	5.72168
	732.369	38.3661	6.19404
	734.269	43.853	6.62216
	736.17	47.1335	6.86539
	738.07	46.938	6.85113
	739.97	42.3479	6.50753
	741.871	37.4041	6.11589
	743.771	32.2681	5.6805
	745.671	27.341	5.22886
	747.572	23.413	4.8387
	749.472	20.04	4.4766
	751.372	17.2101	4.14851
	753.273	14.7328	3.83833
	755.173	13.0082	3.60669
	757.073	11.4644	3.38591
	758.973	10.4169	3.22752
	760.874	9.3816	3.06294
	762.774	8.88112	2.98012
	764.674	8.27357	2.87638
	766.575	8.04436	2.83626
	768.475	7.67706	2.77075
	770.375	7.46957	2.73305
	772.276	7.16136	2.67607
	774.176	6.985	2.64291
	776.076	6.3713	2.52414
	777.977	6.31804	2.51357
	779.877	5.95991	2.44129
	781.777	5.82259	2.413
	783.678	5.49989	2.34518
	785.578	5.45263	2.33509
	787.478	5.42066	2.32823
	789.379	5.02377	2.24138
	791.279	4.61674	2.14866
	793.179	4.48502	2.11779
	795.08	4.49233	2.11951
	796.98	4.43333	2.10555
	798.88	4.5012	2.1216
	800.781	4.48157	2.11697
	802.681	3.92695	1.98165
	804.581	3.18928	1.78586
	806.482	2.98248	1.72698
	808.382	2.87633	1.69598
	810.282	2.9106	1.70605
	812.183	2.39659	1.54809
	814.083	2.17687	1.47542
	815.983	1.85642	1.3625
	817.884	1.50023	1.22484
	819.784	0.93019	0.964464
	821.684	0.489431	0.699593
	823.585	0.211091	0.459446
	825.485	0.54282	0.736763
	827.385	0.688985	0.830051
	829.286	0.519169	0.720534
	831.186	0.575892	0.758875
	833.086	0.485182	0.69655
	834.987	0.661932	0.813592
	836.887	0.680596	0.824982
	838.787	0.750154	0.866114
	840.688	1.02146	1.01067
	842.588	1.1607	1.07736
	844.488	0.712651	0.844187
	846.389	0.449019	0.670088
	848.289	-0.206122	0.454006
	850.189	-0.479307	0.69232
	852.089	-0.421497	0.649228
	853.99	0.171943	0.41466
	855.89	0.642361	0.801474
	857.79	1.11078	1.05393
	859.691	1.48341	1.21795
	861.591	1.63295	1.27787
	863.491	1.25532	1.12041
	865.392	1.01409	1.00702
	867.292	0.936796	0.967882
	869.192	0.844763	0.91911
	871.093	0.447894	0.669249
	872.993	0.0382658	0.195617
	874.893	0.355499	0.596238
	876.794	0.65516	0.80942
	878.694	0.598181	0.773421
	880.594	0.41675	0.645562
	882.495	0.331904	0.576111
	884.395	0.694892	0.833602
	886.295	0.579727	0.761398
	888.196	0.124261	0.352506
	890.096	-0.416563	0.645417
	891.996	-0.235665	0.485454
	893.897	0.174852	0.418154
	895.797	-0.11039	0.33225
	897.697	-0.238532	0.488397
	899.598	-0.375301	0.612618
	901.498	-0.228923	0.478459
	903.398	-0.0939452	0.306505
	905.299	-0.0532164	0.230687
	907.199	-0.245815	0.495797
	909.099	-0.0172702	0.131416
	911	-0.158043	0.397546
	912.9	-0.216053	0.464815
	914.8	-0.306906	0.553991
	916.701	-0.0636161	0.252222
	918.601	0.357249	0.597703
	920.501	0.338249	0.581591
	922.402	0.397843	0.630748
	924.302	0.217433	0.466297
	926.202	0.256836	0.50679
	928.103	0.815722	0.903173
	930.003	1.44062	1.20026
	931.903	1.85431	1.36173
	933.804	2.07027	1.43884
	935.704	2.58408	1.60751
	937.604	3.29752	1.81591
	939.505	4.17152	2.04243
	941.405	5.08172	2.25427
	943.305	6.34522	2.51897
	945.206	7.56679	2.75078
	947.106	9.16702	3.02771
	949.006	11.2061	3.34755
	950.906	14.3983	3.7945
	952.807	17.8672	4.22697
	954.707	22.7982	4.77474
	956.607	28.6364	5.3513
	958.508	36.2824	6.02348
	960.408	46.6006	6.82646
	962.308	59.9814	7.74476
	964.209	78.6747	8.86988
	966.109	101.521	10.0758
	968.009	132.764	11.5223
	969.91	167.758	12.9522
	971.81	207.894	14.4185
	973.71	246.467	15.6993
	975.611	277.717	16.6649
	977.511	295.408	17.1874
	979.411	299.188	17.2971
	981.312	292.525	17.1034
	983.212	279.268	16.7113
	985.112	263.302	16.2266
	987.013	245.927	15.6821
	988.913	228.93	15.1304
	990.813	212.203	14.5672
	992.714	196.514	14.0184
	994.614	182.558	13.5114
	996.514	169.688	13.0264
	998.415	157.11	12.5344
	1000.31	145.714	12.0712
	1002.22	134.227	11.5857
	1004.12	122.985	11.0899
	1006.02	112.425	10.6031
	1007.92	102.901	10.144
	1009.82	93.5436	9.67179
	1011.72	86.6455	9.30836
	1013.62	80.823	8.99016
	1015.52	76.1006	8.72356
	1017.42	72.1619	8.49481
	1019.32	68.9003	8.30062
	1021.22	65.9629	8.12175
	1023.12	62.2423	7.88938
	1025.02	58.7581	7.66539
	1026.92	54.9329	7.41167
	1028.82	50.8545	7.13123
	1030.72	46.8918	6.84776
	1032.62	42.6975	6.53433
	1034.52	38.7139	6.22205
	1036.42	35.2443	5.93669
	1038.32	31.9264	5.65035
	1040.22	28.8425	5.37053
	1042.12	25.5043	5.05018
	1044.02	22.1988	4.71156
	1045.92	19.3169	4.3951
	1047.82	16.8128	4.10035
	1049.72	14.3832	3.79251
	1051.62	12.2675	3.5025
	1053.52	10.3285	3.21379
	1055.42	8.84999	2.97489
	1057.32	7.26196	2.6948
	1059.23	5.77191	2.40248
	1061.13	4.46772	2.1137
	1063.03	3.35217	1.83089
	1064.93	2.51034	1.5844
	1066.83	1.43117	1.19631
	1068.73	0.625325	0.790775
	1070.63	0.0566597	0.238033
	1072.53	-0.294471	0.542652
	1074.43	-0.693755	0.832919
	1076.33	-0.936309	0.96763
	1078.23	-1.13704	1.06632
	1080.13	-0.701267	0.837417
	1082.03	-0.45887	0.6774
	1083.93	0.329337	0.573879
	1085.83	0.863845	0.929432
	1087.73	1.99902	1.41387
	1089.63	2.9697	1.72328
	1091.53	4.13254	2.03287
	1093.43	4.98499	2.23271
	1095.33	6.14164	2.47823
	1097.23	6.71062	2.59049
	1099.13	7.04477	2.6542
	1101.03	6.93054	2.63259
	1102.93	6.53092	2.55557
	1104.83	5.51122	2.3476
	1106.73	4.14443	2.03579
	1108.63	2.59156	1.60983
	1110.53	1.91151	1.38257
	1112.43	1.5495	1.24479
	1114.33	1.79801	1.3409
	1116.23	1.09443	1.04615
	1118.14	0.502344	0.708762
	1120.04	0.0247556	0.157339
	1121.94	-0.133172	0.364928
	1123.84	0.00288229	0.0536869
	1125.74	0.243992	0.493955
	1127.64	0.443769	0.66616
	1129.54	0.575225	0.758436
	1131.44	0.991003	0.995491
	1133.34	0.886176	0.941369
	1135.24	0.851773	0.922916
	1137.14	0.96903	0.984393
	1139.04	1.42113	1.19211
	1140.94	2.0539	1.43314
	1142.84	2.32263	1.52402
	1144.74	1.97892	1.40674
	1146.64	1.6874	1.299
	1148.54	1.28079	1.13172
	1150.44	1.06024	1.02968
	1152.34	0.703819	0.838939
	1154.24	1.07713	1.03785
	1156.14	1.31323	1.14596
	1158.04	1.05484	1.02706
	1159.94	0.440586	0.663767
	1161.84	0.346797	0.588895
	1163.74	0.737833	0.858972
	1165.64	0.91618	0.957173
	1167.54	1.40449	1.18511
	1169.44	1.58758	1.25999
	1171.34	1.40352	1.1847
	1173.24	0.805497	0.897495
	1175.15	0.705823	0.840133
	1177.05	0.538586	0.733884
	1178.95	0.501979	0.708505
	1180.85	0.379684	0.616185
	1182.75	0.58299	0.763538
	1184.65	0.229365	0.478921
	1186.55	0.243551	0.493508
	1188.45	0.679538	0.824341
	1190.35	0.976297	0.988077
	1192.25	0.740383	0.860455
	1194.15	0.305118	0.552375
	1196.05	-0.146105	0.382236
	1197.95	-0.577861	0.760172
	1199.85	-0.163092	0.403846
	1201.75	0.141843	0.37662
	1203.65	-0.00731294	0.0855157
	1205.55	-0.608532	0.780084
	1207.45	-0.72401	0.850888
	1209.35	-0.489173	0.699409
	1211.25	-0.129621	0.360029
	1213.15	0.00799534	0.0894167
	1215.05	-0.0735322	0.271168
	1216.95	-0.492476	0.701767
	1218.85	-0.256654	0.50661
	1220.75	0.294907	0.543053
	1222.65	0.926779	0.962694
	1224.55	0.827785	0.909827
	1226.45	1.12602	1.06114
	1228.35	1.82856	1.35224
	1230.25	2.6258	1.62043
	1232.15	3.28308	1.81193
	1234.06	4.18769	2.04638
	1235.96	5.04364	2.2458
	1237.86	6.19614	2.4892
	1239.76	7.72892	2.78009
	1241.66	9.18216	3.03021
	1243.56	10.832	3.29119
	1245.46	13.0264	3.60921
	1247.36	16.2983	4.03712
	1249.26	19.8095	4.45079
	1251.16	24.17	4.9163
	1253.06	28.5746	5.34552
	1254.96	34.9003	5.90765
	1256.86	43.3781	6.58621
	1258.76	53.9311	7.34378
	1260.66	67.7944	8.23373
	1262.56	84.8606	9.21198
	1264.46	107.213	10.3544
	1266.36	136.868	11.6991
	1268.26	171.627	13.1006
	1270.16	215.512	14.6803
	1272.06	265.939	16.3077
	1273.96	323.07	17.9741
	1275.86	382.482	19.5572
	1277.76	438.464	20.9395
	1279.66	486.417	22.0549
	1281.56	520.138	22.8065
	1283.46	538.746	23.2109
	1285.36	543.031	23.303
	1287.26	530.048	23.0228
	1289.16	506.828	22.5128
	1291.06	472.736	21.7425
	1292.97	429.218	20.7176
	1294.87	379.32	19.4762
	1296.77	329.271	18.1458
	1298.67	277.093	16.6461
	1300.57	228.591	15.1192
	1302.47	185.197	13.6087
	1304.37	147.042	12.1261
	1306.27	117.329	10.8318
	1308.17	93.7028	9.68002
	1310.07	76.0403	8.72011
	1311.97	61.8082	7.86182
	1313.87	51.7087	7.19088
	1315.77	44.5772	6.67662
	1317.67	38.6591	6.21764
	1319.57	33.8702	5.81981
	1321.47	29.6933	5.44916
	1323.37	26.5358	5.1513
	1325.27	23.9066	4.88944
	1327.17	21.448	4.6312
	1329.07	19.4089	4.40555
	1330.97	17.4738	4.18017
	1332.87	16.1408	4.01757
	1334.77	14.7022	3.83435
	1336.67	13.1954	3.63255
	1338.57	11.5289	3.39543
	1340.47	10.3773	3.22138
	1342.37	9.17792	3.02951
	1344.27	8.62451	2.93675
	1346.17	8.22955	2.86872
	1348.07	7.59341	2.75561
	1349.98	6.74051	2.59625
	1351.88	5.69417	2.38625
	1353.78	4.84689	2.20157
	1355.68	4.04124	2.01028
	1357.58	3.28357	1.81206
	1359.48	2.9439	1.71578
	1361.38	2.6222	1.61932
	1363.28	2.29082	1.51354
	1365.18	1.67088	1.29263
	1367.08	1.58613	1.25942
	1368.98	1.41372	1.189
	1370.88	1.33349	1.15477
	1372.78	0.938403	0.968712
	1374.68	1.06221	1.03064
	1376.58	1.15018	1.07246
	1378.48	1.34597	1.16016
	1380.38	1.19904	1.09501
	1382.28	0.965982	0.982844
	1384.18	0.874515	0.935155
	1386.08	1.05487	1.02707
	1387.98	1.42404	1.19333
	1389.88	1.44923	1.20384
	1391.78	1.26458	1.12454
	1393.68	1.18419	1.08821
	1395.58	1.21894	1.10406
	1397.48	1.08587	1.04205
	1399.38	0.795465	0.891889
	1401.28	0.626623	0.791595
	1403.18	0.877959	0.936995
	1405.08	0.939402	0.969228
	1406.98	0.994006	0.996998
	1408.89	0.764865	0.874566
	1410.79	0.61728	0.785671
	1412.69	0.246067	0.496051
	1414.59	-0.0578164	0.24045
	1416.49	0.0281071	0.167652
	1418.39	0.0556951	0.235998
	1420.29	0.0956019	0.309196
	1422.19	-0.352915	0.594066
	1424.09	-0.497857	0.70559
	1425.99	-0.538161	0.733594
	1427.89	-0.481643	0.694005
	1429.79	-0.35261	0.59381
	1431.69	-0.582636	0.763306
	1433.59	-0.294085	0.542296
	1435.49	-0.270015	0.51963
	1437.39	-0.146417	0.382645
	1439.29	-0.337926	0.581314
	1441.19	0.0688198	0.262335
	1443.09	0.314447	0.560756
	1444.99	1.02352	1.01169
	1446.89	1.50429	1.22649
	1448.79	2.05599	1.43387
	1450.69	2.13236	1.46026
	1452.59	2.83099	1.68255
	1454.49	3.34882	1.82998
	1456.39	3.83199	1.95755
	1458.29	4.13923	2.03451
	1460.19	4.83601	2.19909
	1462.09	5.4998	2.34517
	1463.99	5.96	2.44131
	1465.89	6.15108	2.48014
	1467.8	6.14062	2.47803
	1469.7	6.59968	2.56898
	1471.6	6.98422	2.64277
	1473.5	6.99833	2.64544
	1475.4	7.13002	2.67021
	1477.3	7.02431	2.65034
	1479.2	7.25178	2.69291
	1481.1	7.26295	2.69499
	1483	6.89467	2.62577
	1484.9	6.3311	2.51617
	1486.8	5.77354	2.40282
	1488.7	5.38867	2.32135
	1490.6	5.15559	2.27059
	1492.5	4.96658	2.22858
	1494.4	4.7721	2.18451
	1496.3	4.20789	2.05131
	1498.2	3.71683	1.92791
	1500.1	3.39876	1.84357
	1502	2.68992	1.6401
	1503.9	2.6048	1.61394
	1505.8	2.24913	1.49971
	1507.7	1.91078	1.38231
	1509.6	1.151	1.07285
	1511.5	0.971178	0.985484
	1513.4	0.791428	0.889622
	1515.3	0.591143	0.768858
	1517.2	0.30438	0.551707
	1519.1	0.631378	0.794593
	1521	0.699477	0.836348
	1522.9	0.359376	0.59948
	1524.81	-0.0911337	0.301884
	1526.71	-0.276259	0.525604
	1528.61	-0.247087	0.497079
	1530.51	-0.000623676	0.0249735
	1532.41	0.180269	0.424581
	1534.31	0.395518	0.628903
	1536.21	0.245805	0.495787
	1538.11	-0.113492	0.336886
	1540.01	-0.100683	0.317306
	1541.91	-0.0565172	0.237734
	1543.81	-0.00309578	0.0556397
	1545.71	0.165367	0.406654
	1547.61	0.256765	0.50672
	1549.51	0.127139	0.356566
	1551.41	-0.0302269	0.173859
	1553.31	0.131312	0.362371
	1555.21	0.488809	0.699149
	1557.11	0.510455	0.714461
	1559.01	0.171931	0.414645
	1560.91	0.162269	0.402826
	1562.81	0.30069	0.548352
	1564.71	0.540191	0.734977
	1566.61	0.575075	0.758337
	1568.51	0.820501	0.905815
	1570.41	0.850771	0.922372
	1572.31	0.92529	0.96192
	1574.21	0.73598	0.857893
	1576.11	0.511861	0.715444
	1578.01	0.434558	0.65921
	1579.91	0.418353	0.646802
	1581.81	0.522975	0.72317
	1583.72	0.261446	0.511318
	1585.62	0.124614	0.353007
	1587.52	0.629436	0.79337
	1589.42	0.950364	0.974866
	1591.32	1.10621	1.05176
	1593.22	1.09706	1.04741
	1595.12	1.43264	1.19693
	1597.02	1.26672	1.12548
	1598.92	0.934505	0.966698
	1600.82	0.975225	0.987535
	1602.72	1.04946	1.02443
	1604.62	1.27971	1.13124
	1606.52	0.902167	0.949825
	1608.42	0.622614	0.789059
	1610.32	0.210037	0.458298
	1612.22	0.131811	0.363058
	1614.12	0.281343	0.530418
	1616.02	0.407925	0.63869
	1617.92	0.237341	0.487177
	1619.82	0.0097836	0.0989121
	1621.72	0.117059	0.342139
	1623.62	-0.0412868	0.203191
	1625.52	-0.0458537	0.214135
	1627.42	-0.243169	0.493122
	1629.32	-0.103888	0.322316
	1631.22	0.144259	0.379814
	1633.12	0.306028	0.553198
	1635.02	0.221186	0.470304
	1636.92	0.268779	0.518439
	1638.82	0.631115	0.794427
	1640.73	0.432827	0.657896
	1642.63	0.188362	0.434007
	1644.53	0.135944	0.368706
	1646.43	0.628037	0.792488
	1648.33	1.26269	1.1237
	1650.23	1.46955	1.21225
	1652.13	1.67977	1.29606
	1654.03	1.70132	1.30435
	1655.93	2.1676	1.47228
	1657.83	2.44697	1.56428
	1659.73	2.86221	1.69181
	1661.63	3.38479	1.83978
	1663.53	4.07418	2.01846
	1665.43	4.76639	2.18321
	1667.33	5.53505	2.35267
	1669.23	6.32028	2.51402
	1671.13	7.18465	2.68042
	1673.03	8.31071	2.88283
	1674.93	10.0697	3.17328
	1676.83	11.9189	3.45238
	1678.73	13.9109	3.72973
	1680.63	15.8439	3.98044
	1682.53	17.9964	4.24222
	1684.43	20.555	4.53376
	1686.33	23.1711	4.81364
	1688.23	25.5897	5.05863
	1690.13	27.9208	5.28402
	1692.03	29.6883	5.4487
	1693.93	32.0119	5.65791
	1695.83	33.8517	5.81822
	1697.73	34.817	5.90059
	1699.64	35.4663	5.95536
	1701.54	35.6702	5.97246
	1703.44	36.1056	6.0088
	1705.34	35.6093	5.96735
	1707.24	34.7529	5.89516
	1709.14	33.9166	5.8238
	1711.04	33.3328	5.77346
	1712.94	32.4815	5.69925
	1714.84	31.2957	5.59425
	1716.74	30.0035	5.47754
	1718.64	28.9681	5.38221
	1720.54	27.9647	5.28816
	1722.44	27.0869	5.20451
	1724.34	26.493	5.14713
	1726.24	25.7291	5.07239
	1728.14	24.9593	4.99593
	1730.04	23.8612	4.88479
	1731.94	22.6347	4.75759
	1733.84	21.5154	4.63846
	1735.74	20.3927	4.51583
	1737.64	19.3039	4.39362
	1739.54	18.5491	4.30687
	1741.44	17.7508	4.21317
	1743.34	16.8297	4.1024
	1745.24	15.9225	3.9903
	1747.14	15.2258	3.90202
	1749.04	14.6079	3.82203
	1750.94	13.8718	3.72448
	1752.84	12.7212	3.56668
	1754.74	11.833	3.43991
	1756.64	11.0973	3.33127
	1758.55	10.5342	3.24564
	1760.45	10.226	3.19782
	1762.35	9.72441	3.1184
	1764.25	9.12957	3.02152
	1766.15	8.54557	2.92328
	1768.05	8.05805	2.83867
	1769.95	7.35549	2.7121
	1771.85	6.42424	2.53461
	1773.75	5.89112	2.42716
	1775.65	5.23436	2.28787
	1777.55	5.04891	2.24698
	1779.45	4.5001	2.12134
	1781.35	4.1396	2.0346
	1783.25	4.03876	2.00967
	1785.15	3.76412	1.94013
	1787.05	3.75896	1.9388
	1788.95	3.45305	1.85824
	1790.85	3.24585	1.80163
	1792.75	2.94582	1.71634
	1794.65	2.86341	1.69216
	1796.55	2.61016	1.6156
	1798.45	2.61869	1.61824
	1800.35	2.73987	1.65525
	1802.25	3.00722	1.73413
	1804.15	2.93412	1.71293
	1806.05	2.82856	1.68183
	1807.95	2.45861	1.568
	1809.85	2.5264	1.58946
	1811.75	2.50815	1.58371
	1813.65	2.76114	1.66167
	1815.56	2.71569	1.64794
	1817.46	2.63395	1.62294
	1819.36	2.69916	1.64291
	1821.26	2.54069	1.59395
	1823.16	2.38904	1.54565
	1825.06	2.5057	1.58294
	1826.96	2.64131	1.62521
	1828.86	2.60869	1.61514
	1830.76	2.60111	1.6128
	1832.66	2.62204	1.61927
	1834.56	2.30277	1.51749
	1836.46	1.81337	1.34661
	1838.36	1.57967	1.25685
	1840.26	1.7861	1.33645
	1842.16	1.87322	1.36866
	1844.06	1.73011	1.31534
	1845.96	1.58615	1.25943
	1847.86	1.67905	1.29578
	1849.76	1.64619	1.28304
	1851.66	1.73286	1.31638
	1853.56	1.74956	1.32271
	1855.46	1.97085	1.40387
	1857.36	2.26287	1.50428
	1859.26	2.41093	1.55272
	1861.16	2.95957	1.72034
	1863.06	3.6611	1.9134
	1864.96	4.37089	2.09067
	1866.86	5.11291	2.26117
	1868.76	6.33753	2.51744
	1870.66	7.53675	2.74531
	1872.56	8.58033	2.92922
	1874.47	9.78766	3.12852
	1876.37	11.5659	3.40086
	1878.27	13.4358	3.66549
	1880.17	15.1495	3.89223
	1882.07	16.8727	4.10764
	1883.97	18.7044	4.32485
	1885.87	19.9126	4.46235
	1887.77	20.9739	4.57973
	1889.67	21.9203	4.68191
	1891.57	22.8922	4.78458
	1893.47	23.59	4.85695
	1895.37	24.2304	4.92244
	1897.27	24.8093	4.98089
	1899.17	24.9294	4.99294
	1901.07	24.9871	4.99871
	1902.97	24.6149	4.96134
	1904.87	24.3062	4.93014
	1906.77	23.3838	4.83568
	1908.67	22.5759	4.75141
	1910.57	20.9624	4.57847
	1912.47	19.6184	4.42927
	1914.37	18.0141	4.24431
	1916.27	16.5514	4.06834
	1918.17	14.9837	3.87088
	1920.07	13.3366	3.65194
	1921.97	11.9686	3.45957
	1923.87	10.2946	3.20852
	1925.77	8.72022	2.953
	1927.67	6.90505	2.62775
	1929.57	5.42782	2.32977
	1931.48	4.16167	2.04002
	1933.38	3.17356	1.78145
	1935.28	2.14527	1.46467
	1937.18	1.43012	1.19587
	1939.08	0.893379	0.945187
	1940.98	0.566522	0.752676
	1942.88	0.407432	0.638304
	1944.78	0.508201	0.712882
	1946.68	0.555933	0.745609
	1948.58	0.503368	0.709484
	1950.48	0.462731	0.680243
	1952.38	0.503748	0.709752
	1954.28	0.291208	0.539637
	1956.18	0.035374	0.18808
	1958.08	0.0328908	0.181358
	1959.98	-0.104028	0.322533
	1961.88	-0.137933	0.371394
	1963.78	-0.301558	0.549143
	1965.68	-0.491044	0.700745
	1967.58	-0.403067	0.634876
	1969.48	-0.32656	0.571454
	1971.38	-0.148302	0.3851
	1973.28	-0.0908198	0.301363
	1975.18	-0.157637	0.397035
	1977.08	-0.0913024	0.302163
	1978.98	-0.0151587	0.123121
	1980.88	0.134715	0.367036
	1982.78	0.365676	0.604711
	1984.68	0.429954	0.655709
	1986.58	0.296183	0.544227
	1988.48	0.111272	0.333574
	1990.39	0.261028	0.510909
	1992.29	0.532887	0.729991
	1994.19	0.878004	0.937019
	1996.09	0.856629	0.925542
	1997.99	0.878193	0.937119
	1999.89	0.869695	0.932574
	2001.79	1.05648	1.02785
	2003.69	0.955306	0.977398
	2005.59	0.790525	0.889115
	2007.49	0.658818	0.811676
	2009.39	0.582938	0.763504
	2011.29	0.423067	0.650436
	2013.19	0.110797	0.332862
	2015.09	-0.108309	0.329104
	2016.99	-0.189053	0.434802
	2018.89	-0.168483	0.410466
	2020.79	-0.195045	0.441639
	2022.69	-0.0769314	0.277365
	2024.59	-0.0350357	0.187178
	2026.49	-0.0632215	0.251439
	2028.39	0.0108705	0.104262
	2030.29	-0.00287426	0.0536121
	2032.19	-0.0156638	0.125155
	2034.09	0.156614	0.395745
	2035.99	0.203381	0.450978
	2037.89	0.295022	0.543159
	2039.79	0.258621	0.508548
	2041.69	0.287135	0.53585
	2043.59	0.286577	0.535328
	2045.49	0.375188	0.612526
	2047.39	0.361162	0.600968
	2049.3	0.104006	0.3225
	2051.2	-0.129088	0.359288
	2053.1	-0.00156975	0.03962
	2055	0.217482	0.466349
	2056.9	0.280991	0.530086
	2058.8	0.107998	0.32863
	2060.7	0.0739735	0.271981
	2062.6	0.128376	0.358297
	2064.5	0.16869	0.410718
	2066.4	0.223063	0.472295
	2068.3	0.401797	0.633874
	2070.2	0.416518	0.645382
	2072.1	-0.0605948	0.24616
	2074	-0.161766	0.402201
	2075.9	-0.0914083	0.302338
	2077.8	-0.0196253	0.14009
	2079.7	-0.0367711	0.191758
	2081.6	0.082712	0.287597
	2083.5	0.0267839	0.163658
	2085.4	0.00495142	0.0703663
	2087.3	0.0599795	0.244907
	2089.2	0.0822891	0.286861
	2091.1	0.0631417	0.25128
	2093	0.11494	0.339029
	2094.9	0.308496	0.555424
	2096.8	0.331787	0.576009
	2098.7	0.536915	0.732745
	2100.6	0.88517	0.940835
	2102.5	1.13015	1.06309
	2104.4	0.945853	0.97255
	2106.31	0.658868	0.811707
	2108.21	0.460095	0.678303
	2110.11	0.443718	0.666122
	2112.01	0.425267	0.652125
	2113.91	0.515887	0.718253
	2115.81	0.698258	0.835618
	2117.71	0.727046	0.85267
	2119.61	0.914443	0.956265
	2121.51	1.03831	1.01897
	2123.41	1.18798	1.08994
	2125.31	1.25759	1.12142
	2127.21	1.26682	1.12553
	2129.11	1.35618	1.16455
	2131.01	1.07799	1.03826
	2132.91	0.724471	0.851159
	2134.81	0.528482	0.726968
	2136.71	0.385725	0.621068
	2138.61	0.256116	0.506079
	2140.51	0.17916	0.423273
	2142.41	0.0925136	0.30416
	2144.31	0.105709	0.32513
	2146.21	-0.0374558	0.193535
	2148.11	0.0339417	0.184233
	2150.01	0.116132	0.340782
	2151.91	0.162907	0.403618
	2153.81	0.183152	0.427962
	2155.71	0.242087	0.492023
	2157.61	0.18695	0.432377
	2159.51	0.162722	0.403388
	2161.41	0.295174	0.543299
	2163.31	0.216675	0.465483
	2165.22	0.088554	0.29758
	2167.12	-0.0268182	0.163763
	2169.02	-0.159176	0.398969
	2170.92	-0.129789	0.360262
	2172.82	0.0311183	0.176404
	2174.72	0.175377	0.41878
	2176.62	0.351697	0.593041
	2178.52	0.360384	0.60032
	2180.42	0.452386	0.672596
	2182.32	0.210245	0.458525
	2184.22	-0.00691642	0.083165
	2186.12	-0.164018	0.404992
	2188.02	-0.166119	0.407577
	2189.92	-0.170194	0.412545
	2191.82	-0.0299762	0.173136
	2193.72	0.0399977	0.199994
	2195.62	0.323875	0.5691
	2197.52	0.0644403	0.253851
	2199.42	-0.189843	0.43571
	2201.32	-0.0664149	0.257711
	2203.22	0.0603457	0.245654
