Wavelength(nm)  Intensity
690.49	2859.00
690.67	2866.00
690.84	2875.00
691.02	2878.00
691.19	2859.00
691.36	2873.00
691.54	2888.00
691.71	2901.00
691.89	2878.00
692.06	2884.00
692.24	2918.00
692.41	2894.00
692.59	2955.00
692.76	2925.00
692.93	2941.00
693.11	2951.00
693.28	2976.00
693.46	3013.00
693.63	3010.00
693.80	3010.00
693.98	3008.00
694.15	3022.00
694.33	2982.00
694.50	3028.00
694.67	3044.00
694.85	3081.00
695.02	3075.00
695.20	3065.00
695.37	3065.00
695.54	3168.00
695.72	3153.00
695.89	3209.00
696.07	3304.00
696.24	3371.00
696.41	3422.00
696.59	3400.00
696.76	3428.00
696.93	3471.00
697.11	3391.00
697.28	3464.00
697.45	3454.00
697.63	3449.00
697.80	3449.00
697.97	3490.00
698.15	3446.00
698.32	3468.00
698.49	3455.00
698.67	3448.00
698.84	3453.00
699.01	3434.00
699.19	3505.00
699.36	3478.00
699.53	3547.00
699.70	3478.00
699.88	3506.00
700.05	3537.00
700.22	3523.00
700.40	3521.00
700.57	3514.00
700.74	3492.00
700.91	3491.00
701.09	3552.00
701.26	3501.00
701.43	3506.00
701.60	3461.00
701.78	3469.00
701.95	3509.00
702.12	3411.00
702.29	3400.00
702.47	3399.00
702.64	3416.00
702.81	3388.00
702.98	3361.00
703.16	3326.00
703.33	3297.00
703.50	3355.00
703.67	3288.00
703.85	3308.00
704.02	3289.00
704.19	3277.00
704.36	3307.00
704.53	3285.00
704.71	3325.00
704.88	3336.00
705.05	3316.00
705.22	3265.00
705.39	3275.00
705.56	3252.00
705.74	3294.00
705.91	3305.00
706.08	3262.00
706.25	3322.00
706.42	3314.00
706.59	3338.00
706.77	3310.00
706.94	3315.00
707.11	3333.00
707.28	3319.00
707.45	3294.00
707.62	3271.00
707.80	3206.00
707.97	3245.00
708.14	3201.00
708.31	3215.00
708.48	3245.00
708.65	3275.00
708.82	3344.00
708.99	3434.00
709.16	3355.00
709.34	3311.00
709.51	3245.00
709.68	3237.00
709.85	3254.00
710.02	3195.00
710.19	3285.00
710.36	3273.00
710.53	3245.00
710.70	3248.00
710.87	3252.00
711.04	3267.00
711.22	3321.00
711.39	3357.00
711.56	3374.00
711.73	3443.00
711.90	3510.00
712.07	3580.00
712.24	3608.00
712.41	3691.00
712.58	3722.00
712.75	3806.00
712.92	3863.00
713.09	3945.00
713.26	4017.00
713.43	4150.00
713.60	4366.00
713.77	4487.00
713.94	4704.00
714.11	4829.00
714.28	5038.00
714.45	5109.00
714.62	5187.00
714.79	5239.00
714.96	5216.00
715.13	5217.00
715.30	5225.00
715.47	5070.00
715.64	5044.00
715.81	4961.00
715.98	4892.00
716.15	4820.00
716.32	4748.00
716.49	4758.00
716.66	4682.00
716.83	4703.00
717.00	4742.00
717.17	4694.00
717.34	4732.00
717.51	4822.00
717.68	4904.00
717.85	4918.00
718.02	4998.00
718.19	5070.00
718.35	5157.00
718.52	5284.00
718.69	5306.00
718.86	5458.00
719.03	5536.00
719.20	5571.00
719.37	5591.00
719.54	5646.00
719.71	5606.00
719.88	5673.00
720.05	5639.00
720.21	5622.00
720.38	5615.00
720.55	5633.00
720.72	5586.00
720.89	5590.00
721.06	5567.00
721.23	5547.00
721.40	5558.00
721.56	5446.00
721.73	5460.00
721.90	5405.00
722.07	5370.00
722.24	5406.00
722.41	5302.00
722.58	5276.00
722.74	5162.00
722.91	5128.00
723.08	5119.00
723.25	5074.00
723.42	5039.00
723.59	4989.00
723.75	4935.00
723.92	4871.00
724.09	4820.00
724.26	4802.00
724.43	4732.00
724.59	4727.00
724.76	4738.00
724.93	4726.00
725.10	4658.00
725.27	4672.00
725.43	4639.00
725.60	4647.00
725.77	4645.00
725.94	4672.00
726.10	4648.00
726.27	4677.00
726.44	4594.00
726.61	4654.00
726.78	4576.00
726.94	4571.00
727.11	4580.00
727.28	4553.00
727.45	4616.00
727.61	4581.00
727.78	4572.00
727.95	4596.00
728.11	4583.00
728.28	4597.00
728.45	4549.00
728.62	4520.00
728.78	4564.00
728.95	4544.00
729.12	4529.00
729.29	4494.00
729.45	4480.00
729.62	4512.00
729.79	4486.00
729.95	4464.00
730.12	4484.00
730.29	4473.00
730.45	4460.00
730.62	4426.00
730.79	4440.00
730.95	4399.00
731.12	4418.00
731.29	4453.00
731.45	4353.00
731.62	4394.00
731.79	4420.00
731.95	4388.00
732.12	4373.00
732.29	4364.00
732.45	4406.00
732.62	4307.00
732.79	4302.00
732.95	4274.00
733.12	4256.00
733.28	4278.00
733.45	4227.00
733.62	4216.00
733.78	4174.00
733.95	4195.00
734.12	4155.00
734.28	4141.00
734.45	4110.00
734.61	4045.00
734.78	4072.00
734.95	4079.00
735.11	4058.00
735.28	4058.00
735.44	4046.00
735.61	4039.00
735.77	4039.00
735.94	4054.00
736.11	3999.00
736.27	3979.00
736.44	3963.00
736.60	3954.00
736.77	3921.00
736.93	3939.00
737.10	4020.00
737.26	3947.00
737.43	3913.00
737.60	3872.00
737.76	3894.00
737.93	3852.00
738.09	3868.00
738.26	3865.00
738.42	3856.00
738.59	3832.00
738.75	3862.00
738.92	3848.00
739.08	3798.00
739.25	3760.00
739.41	3805.00
739.58	3780.00
739.74	3831.00
739.91	3794.00
740.07	3804.00
740.24	3801.00
740.40	3758.00
740.57	3791.00
740.73	3797.00
740.90	3712.00
741.06	3704.00
741.23	3683.00
741.39	3764.00
741.55	3711.00
741.72	3717.00
741.88	3669.00
742.05	3716.00
742.21	3680.00
742.38	3677.00
742.54	3662.00
742.71	3672.00
742.87	3676.00
743.03	3649.00
743.20	3686.00
743.36	3637.00
743.53	3625.00
743.69	3644.00
743.86	3641.00
744.02	3588.00
744.18	3614.00
744.35	3686.00
744.51	3615.00
744.67	3603.00
744.84	3578.00
745.00	3643.00
745.17	3612.00
745.33	3627.00
745.49	3639.00
745.66	3564.00
745.82	3647.00
745.99	3568.00
746.15	3596.00
746.31	3565.00
746.48	3596.00
746.64	3555.00
746.80	3592.00
746.97	3524.00
747.13	3554.00
747.29	3500.00
747.46	3530.00
747.62	3549.00
747.78	3523.00
747.95	3513.00
748.11	3516.00
748.27	3502.00
748.44	3537.00
748.60	3534.00
748.76	3531.00
748.92	3535.00
749.09	3539.00
749.25	3501.00
749.41	3471.00
749.58	3500.00
749.74	3516.00
749.90	3477.00
750.07	3483.00
750.23	3481.00
750.39	3501.00
750.55	3533.00
750.72	3467.00
750.88	3476.00
751.04	3479.00
751.20	3523.00
751.37	3430.00
751.53	3529.00
751.69	3457.00
751.85	3458.00
752.02	3446.00
752.18	3453.00
752.34	3497.00
752.50	3460.00
752.67	3433.00
752.83	3400.00
752.99	3427.00
753.15	3449.00
753.31	3435.00
753.48	3432.00
753.64	3382.00
753.80	3408.00
753.96	3410.00
754.12	3390.00
754.29	3390.00
754.45	3403.00
754.61	3399.00
754.77	3347.00
754.93	3332.00
755.09	3373.00
755.26	3389.00
755.42	3424.00
755.58	3408.00
755.74	3409.00
755.90	3386.00
756.06	3378.00
756.23	3380.00
756.39	3364.00
756.55	3359.00
756.71	3366.00
756.87	3387.00
757.03	3380.00
757.19	3346.00
757.36	3363.00
757.52	3392.00
757.68	3379.00
757.84	3410.00
758.00	3377.00
758.16	3397.00
758.32	3329.00
758.48	3373.00
758.64	3316.00
758.80	3360.00
758.97	3368.00
759.13	3342.00
759.29	3336.00
759.45	3366.00
759.61	3344.00
759.77	3320.00
759.93	3337.00
760.09	3375.00
760.25	3338.00
760.41	3324.00
760.57	3458.00
760.73	3325.00
760.89	3346.00
761.05	3314.00
761.21	3350.00
761.38	3312.00
761.54	3361.00
761.70	3397.00
761.86	3362.00
762.02	3345.00
762.18	3339.00
762.34	3357.00
762.50	3363.00
762.66	3338.00
762.82	3344.00
762.98	3297.00
763.14	3356.00
763.30	3377.00
763.46	3408.00
763.62	3478.00
763.78	3378.00
763.94	3293.00
764.10	3296.00
764.26	3302.00
764.42	3336.00
764.58	3363.00
764.74	3317.00
764.90	3308.00
765.05	3310.00
765.21	3284.00
765.37	3326.00
765.53	3368.00
765.69	3286.00
765.85	3349.00
766.01	3304.00
766.17	3292.00
766.33	3327.00
766.49	3333.00
766.65	3329.00
766.81	3339.00
766.97	3309.00
767.13	3291.00
767.29	3298.00
767.44	3301.00
767.60	3295.00
767.76	3322.00
767.92	3316.00
768.08	3330.00
768.24	3277.00
768.40	3319.00
768.56	3307.00
768.72	3308.00
768.88	3381.00
769.03	3341.00
769.19	3280.00
769.35	3336.00
769.51	3333.00
769.67	3354.00
769.83	3342.00
769.99	3300.00
770.14	3286.00
770.30	3268.00
770.46	3321.00
770.62	3338.00
770.78	3325.00
770.94	3324.00
771.09	3279.00
771.25	3291.00
771.41	3316.00
771.57	3345.00
771.73	3358.00
771.89	3369.00
772.04	3328.00
772.20	3317.00
772.36	3359.00
772.52	3356.00
772.68	3336.00
772.83	3327.00
772.99	3307.00
773.15	3328.00
773.31	3302.00
773.46	3327.00
773.62	3331.00
773.78	3289.00
773.94	3309.00
774.10	3360.00
774.25	3326.00
774.41	3321.00
774.57	3339.00
774.73	3327.00
774.88	3306.00
775.04	3312.00
775.20	3336.00
775.36	3276.00
775.51	3299.00
775.67	3349.00
775.83	3359.00
775.98	3334.00
776.14	3408.00
776.30	3363.00
776.46	3365.00
776.61	3374.00
776.77	3356.00
776.93	3370.00
777.08	3304.00
777.24	3331.00
777.40	3345.00
777.56	3320.00
777.71	3364.00
777.87	3362.00
778.03	3264.00
778.18	3356.00
778.34	3289.00
778.50	3317.00
778.65	3324.00
778.81	3332.00
778.97	3308.00
779.12	3336.00
779.28	3303.00
779.44	3325.00
779.59	3336.00
779.75	3326.00
779.90	3310.00
780.06	3355.00
780.22	3384.00
780.37	3377.00
780.53	3330.00
780.69	3334.00
780.84	3308.00
781.00	3397.00
781.15	3340.00
781.31	3300.00
781.47	3366.00
781.62	3310.00
781.78	3329.00
781.93	3278.00
782.09	3352.00
782.25	3316.00
782.40	3298.00
782.56	3320.00
782.71	3333.00
782.87	3353.00
783.02	3339.00
783.18	3343.00
783.34	3392.00
783.49	3362.00
783.65	3401.00
783.80	3366.00
783.96	3345.00
784.11	3373.00
784.27	3392.00
784.42	3390.00
784.58	3459.00
784.73	3365.00
784.89	3394.00
785.05	3398.00
785.20	3442.00
785.36	3392.00
785.51	3420.00
785.67	3398.00
785.82	3416.00
785.98	3497.00
786.13	3421.00
786.29	3402.00
786.44	3456.00
786.60	3400.00
786.75	3442.00
786.91	3444.00
787.06	3403.00
787.21	3422.00
787.37	3434.00
787.52	3415.00
787.68	3441.00
787.83	3425.00
787.99	3398.00
788.14	3468.00
788.30	3395.00
788.45	3447.00
788.61	3427.00
788.76	3459.00
788.91	3466.00
789.07	3417.00
789.22	3453.00
789.38	3430.00
789.53	3443.00
789.69	3445.00
789.84	3477.00
789.99	3429.00
790.15	3420.00
790.30	3459.00
790.46	3466.00
790.61	3444.00
790.76	3443.00
790.92	3438.00
791.07	3438.00
791.23	3429.00
791.38	3427.00
791.53	3463.00
791.69	3413.00
791.84	3517.00
791.99	3408.00
792.15	3390.00
792.30	3438.00
792.46	3496.00
792.61	3447.00
792.76	3426.00
792.92	3424.00
793.07	3449.00
793.22	3424.00
793.38	3415.00
793.53	3449.00
793.68	3441.00
793.84	3415.00
793.99	3419.00
794.14	3433.00
794.30	3413.00
794.45	3395.00
794.60	3469.00
794.75	3464.00
794.91	3495.00
795.06	3435.00
795.21	3461.00
795.37	3402.00
795.52	3452.00
795.67	3409.00
795.83	3463.00
795.98	3434.00
796.13	3437.00
796.28	3445.00
796.44	3424.00
796.59	3386.00
796.74	3392.00
796.89	3451.00
797.05	3370.00
797.20	3360.00
797.35	3358.00
797.50	3393.00
797.66	3431.00
797.81	3396.00
797.96	3433.00
798.11	3374.00
798.27	3406.00
798.42	3322.00
798.57	4057.00
798.72	3429.00
798.87	3373.00
799.03	3395.00
799.18	3402.00
799.33	3376.00
799.48	3397.00
799.63	3410.00
799.79	3387.00
799.94	3337.00
800.09	3376.00
800.24	3354.00
800.39	3408.00
800.54	3453.00
800.70	3397.00
800.85	3375.00
801.00	3413.00
801.15	3364.00
801.30	3385.00
801.45	3434.00
801.61	3394.00
801.76	3397.00
801.91	3381.00
802.06	3381.00
802.21	3382.00
802.36	3317.00
802.51	3409.00
802.67	3386.00
802.82	3380.00
802.97	3382.00
803.12	3393.00
803.27	3381.00
803.42	3385.00
803.57	3395.00
803.72	3359.00
803.87	3355.00
804.02	3410.00
804.18	3381.00
804.33	3396.00
804.48	3433.00
804.63	3372.00
804.78	3382.00
804.93	3349.00
805.08	3374.00
805.23	3369.00
805.38	3372.00
805.53	3387.00
805.68	3353.00
805.83	3348.00
805.98	3361.00
806.13	3337.00
806.28	3377.00
806.44	3345.00
806.59	3396.00
806.74	3387.00
806.89	3354.00
807.04	3414.00
807.19	3356.00
807.34	3367.00
807.49	3347.00
807.64	3389.00
807.79	3359.00
807.94	3354.00
808.09	3394.00
808.24	3376.00
808.39	3392.00
808.54	3385.00
808.69	3409.00
808.84	3387.00
808.99	3412.00
809.14	3427.00
809.29	3417.00
809.44	3440.00
809.58	3424.00
809.73	3407.00
809.88	3390.00
810.03	3420.00
810.18	3437.00
810.33	3504.00
810.48	3487.00
810.63	3445.00
810.78	3469.00
810.93	3464.00
811.08	3455.00
811.23	3467.00
811.38	3562.00
811.53	3721.00
811.68	3627.00
811.83	3567.00
811.97	3525.00
812.12	3531.00
812.27	3503.00
812.42	3465.00
812.57	3436.00
812.72	3421.00
812.87	3435.00
813.02	3398.00
813.17	3421.00
813.31	3486.00
813.46	3430.00
813.61	3431.00
813.76	3429.00
813.91	3444.00
814.06	3468.00
814.21	3432.00
814.35	3434.00
814.50	3451.00
814.65	3459.00
814.80	3427.00
814.95	3476.00
815.10	3483.00
815.25	3462.00
815.39	3426.00
815.54	3473.00
815.69	3405.00
815.84	3413.00
815.99	3468.00
816.13	3452.00
816.28	3441.00
816.43	3492.00
816.58	3451.00
816.73	3469.00
816.87	3441.00
817.02	3441.00
817.17	3495.00
817.32	3466.00
817.47	3512.00
817.61	3479.00
817.76	3479.00
817.91	3404.00
818.06	3446.00
818.20	3466.00
818.35	3491.00
818.50	3475.00
818.65	3479.00
818.79	3511.00
818.94	3493.00
819.09	3451.00
819.24	3470.00
819.38	3500.00
819.53	3487.00
819.68	3522.00
819.83	3456.00
819.97	3503.00
820.12	3489.00
820.27	3480.00
820.41	3525.00
820.56	3508.00
820.71	3526.00
820.86	3516.00
821.00	3570.00
821.15	3513.00
821.30	3518.00
821.44	3581.00
821.59	3536.00
821.74	3491.00
821.88	3506.00
822.03	3468.00
822.18	3536.00
822.32	3469.00
822.47	3502.00
822.62	3500.00
822.76	3498.00
822.91	3487.00
823.06	3478.00
823.20	3468.00
823.35	3556.00
823.49	3502.00
823.64	3513.00
823.79	3531.00
823.93	3525.00
824.08	3561.00
824.23	3528.00
824.37	3606.00
824.52	3526.00
824.66	3571.00
824.81	3568.00
824.96	3567.00
825.10	3562.00
825.25	3576.00
825.39	3560.00
825.54	3578.00
825.69	3569.00
825.83	3583.00
825.98	3598.00
826.12	3593.00
826.27	3598.00
826.41	3632.00
826.56	3634.00
826.71	3619.00
826.85	3613.00
827.00	3624.00
827.14	3588.00
827.29	3610.00
827.43	3618.00
827.58	3599.00
827.72	3623.00
827.87	3563.00
828.01	3576.00
828.16	3588.00
828.30	3591.00
828.45	3597.00
828.59	3598.00
828.74	3618.00
828.89	3537.00
829.03	3689.00
829.18	3627.00
829.32	3623.00
829.46	3627.00
829.61	3627.00
829.75	3642.00
829.90	3655.00
830.04	3620.00
830.19	3614.00
830.33	3606.00
830.48	3624.00
830.62	3573.00
830.77	3627.00
830.91	3650.00
831.06	3618.00
831.20	3614.00
831.35	3635.00
831.49	3615.00
831.63	3603.00
831.78	3642.00
831.92	3618.00
832.07	3649.00
832.21	3636.00
832.36	3646.00
832.50	3605.00
832.64	3629.00
832.79	3601.00
832.93	3588.00
833.08	3655.00
833.22	3633.00
833.36	3664.00
833.51	3578.00
833.65	3625.00
833.80	3696.00
833.94	3609.00
834.08	3614.00
834.23	3683.00
834.37	3640.00
834.51	3644.00
834.66	3620.00
834.80	3620.00
834.95	3633.00
835.09	3669.00
835.23	3683.00
835.38	3666.00
835.52	3716.00
835.66	3664.00
835.81	3695.00
835.95	3671.00
836.09	3662.00
836.24	3725.00
836.38	3670.00
836.52	3680.00
836.67	3678.00
836.81	3755.00
836.95	3689.00
837.10	3693.00
837.24	3678.00
837.38	3668.00
837.52	3661.00
837.67	3671.00
837.81	3647.00
837.95	3652.00
838.10	3632.00
838.24	3640.00
838.38	3651.00
838.52	3666.00
838.67	3630.00
838.81	3627.00
838.95	3655.00
839.09	3650.00
839.24	3652.00
839.38	3669.00
839.52	3650.00
839.66	3680.00
839.81	3653.00
839.95	3645.00
840.09	3702.00
840.23	3689.00
840.38	3695.00
840.52	3682.00
840.66	3742.00
840.80	3755.00
840.94	3719.00
841.09	3736.00
841.23	3660.00
841.37	3681.00
841.51	3701.00
841.65	3677.00
841.80	3648.00
841.94	3639.00
842.08	3655.00
842.22	3650.00
842.36	3707.00
842.50	3766.00
842.65	3717.00
842.79	3679.00
842.93	3621.00
843.07	3603.00
843.21	3638.00
843.35	3621.00
843.50	3597.00
843.64	3585.00
843.78	3545.00
843.92	3584.00
844.06	3579.00
844.20	3577.00
844.34	3619.00
844.48	3578.00
844.63	3633.00
844.77	3613.00
844.91	3588.00
845.05	3605.00
845.19	3563.00
845.33	3621.00
845.47	3639.00
845.61	3588.00
845.75	3622.00
845.90	3585.00
846.04	3596.00
846.18	3552.00
846.32	3548.00
846.46	3554.00
846.60	3560.00
846.74	3539.00
846.88	3493.00
847.02	3497.00
847.16	3509.00
847.30	3533.00
847.44	3527.00
847.58	3480.00
847.72	3551.00
847.86	3619.00
848.00	3500.00
848.14	3537.00
848.28	3576.00
848.42	3562.00
848.56	3568.00
848.70	3560.00
848.84	3572.00
848.99	3569.00
849.13	3545.00
849.27	3554.00
849.41	3480.00
849.54	3514.00
849.68	3517.00
849.82	3599.00
849.96	3564.00
850.10	3556.00
850.24	3569.00
850.38	3515.00
850.52	3457.00
850.66	3496.00
850.80	3492.00
850.94	3486.00
851.08	3525.00
851.22	3464.00
851.36	3504.00
851.50	2604.00
851.64	2502.00
851.78	2557.00
851.92	2558.00
852.06	2844.00
852.20	2857.00
852.34	2821.00
852.48	2875.00
852.61	2862.00
852.75	2837.00
852.89	3492.00
853.03	3459.00
853.17	3433.00
853.31	3439.00
853.45	3471.00
853.59	3464.00
853.73	2556.00
853.87	2590.00
854.00	2560.00
854.14	2529.00
