Wavelength(nm)  Intensity
690.49	2508.00
690.67	2514.00
690.84	2515.00
691.02	2513.00
691.19	2514.00
691.36	2518.00
691.54	2516.00
691.71	2518.00
691.89	2512.00
692.06	2512.00
692.24	2519.00
692.41	2516.00
692.59	2522.00
692.76	2521.00
692.93	2519.00
693.11	2524.00
693.28	2530.00
693.46	2531.00
693.63	2534.00
693.80	2534.00
693.98	2530.00
694.15	2528.00
694.33	2530.00
694.50	2530.00
694.67	2531.00
694.85	2535.00
695.02	2532.00
695.20	2532.00
695.37	2531.00
695.54	2539.00
695.72	2532.00
695.89	2531.00
696.07	2542.00
696.24	2537.00
696.41	2545.00
696.59	2537.00
696.76	2543.00
696.93	2554.00
697.11	2543.00
697.28	2552.00
697.45	2553.00
697.63	2552.00
697.80	2553.00
697.97	2557.00
698.15	2555.00
698.32	2557.00
698.49	2557.00
698.67	2559.00
698.84	2557.00
699.01	2561.00
699.19	2567.00
699.36	2564.00
699.53	2580.00
699.70	2573.00
699.88	2580.00
700.05	2581.00
700.22	2577.00
700.40	2582.00
700.57	2584.00
700.74	2593.00
700.91	2589.00
701.09	2601.00
701.26	2603.00
701.43	2603.00
701.60	2599.00
701.78	2607.00
701.95	2615.00
702.12	2612.00
702.29	2614.00
702.47	2617.00
702.64	2628.00
702.81	2638.00
702.98	2638.00
703.16	2636.00
703.33	2642.00
703.50	2669.00
703.67	2655.00
703.85	2668.00
704.02	2676.00
704.19	2681.00
704.36	2691.00
704.53	2698.00
704.71	2709.00
704.88	2707.00
705.05	2714.00
705.22	2712.00
705.39	2725.00
705.56	2722.00
705.74	2744.00
705.91	2753.00
706.08	2755.00
706.25	2772.00
706.42	2781.00
706.59	2798.00
706.77	2800.00
706.94	2805.00
707.11	2821.00
707.28	2821.00
707.45	2827.00
707.62	2821.00
707.80	2821.00
707.97	2831.00
708.14	2833.00
708.31	2843.00
708.48	2860.00
708.65	2867.00
708.82	2893.00
708.99	2916.00
709.16	2903.00
709.34	2908.00
709.51	2893.00
709.68	2886.00
709.85	2885.00
710.02	2878.00
710.19	2896.00
710.36	2887.00
710.53	2895.00
710.70	2887.00
710.87	2885.00
711.04	2883.00
711.22	2898.00
711.39	2893.00
711.56	2894.00
711.73	2902.00
711.90	2916.00
712.07	2925.00
712.24	2921.00
712.41	2919.00
712.58	2923.00
712.75	2928.00
712.92	2922.00
713.09	2916.00
713.26	2912.00
713.43	2919.00
713.60	2922.00
713.77	2925.00
713.94	2937.00
714.11	2921.00
714.28	2945.00
714.45	2955.00
714.62	2968.00
714.79	2976.00
714.96	2976.00
715.13	3000.00
715.30	3027.00
715.47	3024.00
715.64	3047.00
715.81	3069.00
715.98	3080.00
716.15	3112.00
716.32	3102.00
716.49	3133.00
716.66	3163.00
716.83	3179.00
717.00	3202.00
717.17	3207.00
717.34	3226.00
717.51	3228.00
717.68	3260.00
717.85	3256.00
718.02	3260.00
718.19	3252.00
718.35	3242.00
718.52	3242.00
718.69	3233.00
718.86	3238.00
719.03	3216.00
719.20	3207.00
719.37	3203.00
719.54	3171.00
719.71	3168.00
719.88	3155.00
720.05	3153.00
720.21	3139.00
720.38	3133.00
720.55	3146.00
720.72	3138.00
720.89	3142.00
721.06	3137.00
721.23	3143.00
721.40	3143.00
721.56	3146.00
721.73	3174.00
721.90	3176.00
722.07	3190.00
722.24	3218.00
722.41	3222.00
722.58	3224.00
722.74	3222.00
722.91	3216.00
723.08	3237.00
723.25	3236.00
723.42	3264.00
723.59	3262.00
723.75	3280.00
723.92	3266.00
724.09	3286.00
724.26	3285.00
724.43	3290.00
724.59	3316.00
724.76	3337.00
724.93	3361.00
725.10	3365.00
725.27	3382.00
725.43	3404.00
725.60	3429.00
725.77	3435.00
725.94	3451.00
726.10	3468.00
726.27	3484.00
726.44	3484.00
726.61	3507.00
726.78	3522.00
726.94	3531.00
727.11	3529.00
727.28	3546.00
727.45	3556.00
727.61	3569.00
727.78	3582.00
727.95	3604.00
728.11	3611.00
728.28	3624.00
728.45	3647.00
728.62	3653.00
728.78	3679.00
728.95	3690.00
729.12	3691.00
729.29	3718.00
729.45	3715.00
729.62	3737.00
729.79	3737.00
729.95	3749.00
730.12	3765.00
730.29	3761.00
730.45	3760.00
730.62	3730.00
730.79	3739.00
730.95	3724.00
731.12	3717.00
731.29	3751.00
731.45	3710.00
731.62	3722.00
731.79	3701.00
731.95	3704.00
732.12	3691.00
732.29	3676.00
732.45	3679.00
732.62	3656.00
732.79	3647.00
732.95	3635.00
733.12	3623.00
733.28	3621.00
733.45	3621.00
733.62	3603.00
733.78	3590.00
733.95	3596.00
734.12	3590.00
734.28	3602.00
734.45	3578.00
734.61	3570.00
734.78	3563.00
734.95	3557.00
735.11	3542.00
735.28	3531.00
735.44	3517.00
735.61	3491.00
735.77	3500.00
735.94	3481.00
736.11	3468.00
736.27	3440.00
736.44	3465.00
736.60	3449.00
736.77	3440.00
736.93	3437.00
737.10	3464.00
737.26	3437.00
737.43	3423.00
737.60	3422.00
737.76	3420.00
737.93	3398.00
738.09	3396.00
738.26	3395.00
738.42	3389.00
738.59	3382.00
738.75	3376.00
738.92	3378.00
739.08	3358.00
739.25	3370.00
739.41	3360.00
739.58	3348.00
739.74	3340.00
739.91	3331.00
740.07	3320.00
740.24	3325.00
740.40	3306.00
740.57	3321.00
740.73	3323.00
740.90	3314.00
741.06	3313.00
741.23	3304.00
741.39	3329.00
741.55	3314.00
741.72	3307.00
741.88	3287.00
742.05	3290.00
742.21	3277.00
742.38	3262.00
742.54	3257.00
742.71	3243.00
742.87	3259.00
743.03	3240.00
743.20	3257.00
743.36	3241.00
743.53	3239.00
743.69	3229.00
743.86	3243.00
744.02	3244.00
744.18	3243.00
744.35	3256.00
744.51	3253.00
744.67	3246.00
744.84	3243.00
745.00	3250.00
745.17	3249.00
745.33	3242.00
745.49	3236.00
745.66	3214.00
745.82	3219.00
745.99	3214.00
746.15	3212.00
746.31	3225.00
746.48	3235.00
746.64	3218.00
746.80	3206.00
746.97	3187.00
747.13	3194.00
747.29	3193.00
747.46	3182.00
747.62	3196.00
747.78	3200.00
747.95	3185.00
748.11	3180.00
748.27	3178.00
748.44	3175.00
748.60	3179.00
748.76	3178.00
748.92	3176.00
749.09	3185.00
749.25	3169.00
749.41	3153.00
749.58	3163.00
749.74	3160.00
749.90	3144.00
750.07	3129.00
750.23	3119.00
750.39	3122.00
750.55	3125.00
750.72	3113.00
750.88	3126.00
751.04	3132.00
751.20	3147.00
751.37	3131.00
751.53	3152.00
751.69	3131.00
751.85	3143.00
752.02	3143.00
752.18	3131.00
752.34	3130.00
752.50	3128.00
752.67	3113.00
752.83	3097.00
752.99	3096.00
753.15	3101.00
753.31	3092.00
753.48	3085.00
753.64	3088.00
753.80	3089.00
753.96	3098.00
754.12	3101.00
754.29	3100.00
754.45	3100.00
754.61	3096.00
754.77	3093.00
754.93	3078.00
755.09	3091.00
755.26	3075.00
755.42	3085.00
755.58	3077.00
755.74	3066.00
755.90	3069.00
756.06	3058.00
756.23	3070.00
756.39	3071.00
756.55	3073.00
756.71	3068.00
756.87	3070.00
757.03	3056.00
757.19	3044.00
757.36	3049.00
757.52	3049.00
757.68	3054.00
757.84	3059.00
758.00	3044.00
758.16	3057.00
758.32	3042.00
758.48	3041.00
758.64	3036.00
758.80	3020.00
758.97	3026.00
759.13	3021.00
759.29	3018.00
759.45	3014.00
759.61	3001.00
759.77	3003.00
759.93	3012.00
760.09	3011.00
760.25	3015.00
760.41	3001.00
760.57	3017.00
760.73	3000.00
760.89	3000.00
761.05	2989.00
761.21	2997.00
761.38	2996.00
761.54	2988.00
761.70	3003.00
761.86	2995.00
762.02	2985.00
762.18	2989.00
762.34	2999.00
762.50	2994.00
762.66	2990.00
762.82	2990.00
762.98	2974.00
763.14	3005.00
763.30	2990.00
763.46	3005.00
763.62	3018.00
763.78	2991.00
763.94	2988.00
764.10	2975.00
764.26	2980.00
764.42	2980.00
764.58	2985.00
764.74	2970.00
764.90	2970.00
765.05	2967.00
765.21	2968.00
765.37	2976.00
765.53	2981.00
765.69	2972.00
765.85	2974.00
766.01	2956.00
766.17	2947.00
766.33	2951.00
766.49	2946.00
766.65	2946.00
766.81	2938.00
766.97	2935.00
767.13	2928.00
767.29	2936.00
767.44	2942.00
767.60	2937.00
767.76	2937.00
767.92	2940.00
768.08	2943.00
768.24	2922.00
768.40	2940.00
768.56	2939.00
768.72	2938.00
768.88	2935.00
769.03	2930.00
769.19	2922.00
769.35	2925.00
769.51	2925.00
769.67	2918.00
769.83	2924.00
769.99	2928.00
770.14	2916.00
770.30	2922.00
770.46	2929.00
770.62	2924.00
770.78	2912.00
770.94	2909.00
771.09	2889.00
771.25	2889.00
771.41	2889.00
771.57	2894.00
771.73	2885.00
771.89	2891.00
772.04	2893.00
772.20	2895.00
772.36	2906.00
772.52	2904.00
772.68	2906.00
772.83	2890.00
772.99	2891.00
773.15	2883.00
773.31	2878.00
773.46	2883.00
773.62	2878.00
773.78	2877.00
773.94	2871.00
774.10	2874.00
774.25	2878.00
774.41	2866.00
774.57	2867.00
774.73	2869.00
774.88	2865.00
775.04	2873.00
775.20	2880.00
775.36	2870.00
775.51	2872.00
775.67	2886.00
775.83	2889.00
775.98	2882.00
776.14	2885.00
776.30	2882.00
776.46	2882.00
776.61	2880.00
776.77	2871.00
776.93	2864.00
777.08	2847.00
777.24	2855.00
777.40	2861.00
777.56	2860.00
777.71	2848.00
777.87	2853.00
778.03	2838.00
778.18	2841.00
778.34	2833.00
778.50	2848.00
778.65	2838.00
778.81	2838.00
778.97	2836.00
779.12	2835.00
779.28	2832.00
779.44	2832.00
779.59	2836.00
779.75	2826.00
779.90	2828.00
780.06	2832.00
780.22	2827.00
780.37	2832.00
780.53	2822.00
780.69	2828.00
780.84	2818.00
781.00	2836.00
781.15	2821.00
781.31	2810.00
781.47	2826.00
781.62	2812.00
781.78	2815.00
781.93	2807.00
782.09	2812.00
782.25	2813.00
782.40	2804.00
782.56	2811.00
782.71	2813.00
782.87	2821.00
783.02	2810.00
783.18	2815.00
783.34	2820.00
783.49	2814.00
783.65	2814.00
783.80	2809.00
783.96	2802.00
784.11	2810.00
784.27	2807.00
784.42	2806.00
784.58	2804.00
784.73	2794.00
784.89	2804.00
785.05	2793.00
785.20	2807.00
785.36	2793.00
785.51	2796.00
785.67	2794.00
785.82	2795.00
785.98	2804.00
786.13	2793.00
786.29	2791.00
786.44	2792.00
786.60	2789.00
786.75	2784.00
786.91	2785.00
787.06	2783.00
787.21	2784.00
787.37	2785.00
787.52	2785.00
787.68	2786.00
787.83	2787.00
787.99	2783.00
788.14	2784.00
788.30	2773.00
788.45	2781.00
788.61	2787.00
788.76	2781.00
788.91	2786.00
789.07	2773.00
789.22	2781.00
789.38	2780.00
789.53	2773.00
789.69	2771.00
789.84	2778.00
789.99	2768.00
790.15	2763.00
790.30	2771.00
790.46	2771.00
790.61	2779.00
790.76	2766.00
790.92	2768.00
791.07	2760.00
791.23	2757.00
791.38	2759.00
791.53	2758.00
791.69	2757.00
791.84	2771.00
791.99	2762.00
792.15	2742.00
792.30	2753.00
792.46	2759.00
792.61	2753.00
792.76	2744.00
792.92	2741.00
793.07	2746.00
793.22	2745.00
793.38	2738.00
793.53	2753.00
793.68	2749.00
793.84	2737.00
793.99	2745.00
794.14	2737.00
794.30	2732.00
794.45	2730.00
794.60	2744.00
794.75	2747.00
794.91	2751.00
795.06	2742.00
795.21	2746.00
795.37	2734.00
795.52	2744.00
795.67	2736.00
795.83	2738.00
795.98	2734.00
796.13	2730.00
796.28	2732.00
796.44	2736.00
796.59	2719.00
796.74	2720.00
796.89	2733.00
797.05	2719.00
797.20	2727.00
797.35	2729.00
797.50	2718.00
797.66	2734.00
797.81	2722.00
797.96	2729.00
798.11	2720.00
798.27	2722.00
798.42	2708.00
798.57	2829.00
798.72	2734.00
798.87	2727.00
799.03	2731.00
799.18	2723.00
799.33	2731.00
799.48	2733.00
799.63	2730.00
799.79	2724.00
799.94	2721.00
800.09	2718.00
800.24	2719.00
800.39	2730.00
800.54	2730.00
800.70	2733.00
800.85	2721.00
801.00	2730.00
801.15	2718.00
801.30	2721.00
801.45	2741.00
801.61	2719.00
801.76	2719.00
801.91	2713.00
802.06	2719.00
802.21	2709.00
802.36	2699.00
802.51	2707.00
802.67	2698.00
802.82	2704.00
802.97	2701.00
803.12	2707.00
803.27	2704.00
803.42	2712.00
803.57	2703.00
803.72	2698.00
803.87	2699.00
804.02	2703.00
804.18	2702.00
804.33	2708.00
804.48	2709.00
804.63	2697.00
804.78	2695.00
804.93	2696.00
805.08	2696.00
805.23	2696.00
805.38	2697.00
805.53	2699.00
805.68	2694.00
805.83	2690.00
805.98	2691.00
806.13	2694.00
806.28	2694.00
806.44	2687.00
806.59	2699.00
806.74	2687.00
806.89	2685.00
807.04	2691.00
807.19	2682.00
807.34	2681.00
807.49	2680.00
807.64	2681.00
807.79	2683.00
807.94	2677.00
808.09	2680.00
808.24	2679.00
808.39	2674.00
808.54	2679.00
808.69	2685.00
808.84	2673.00
808.99	2670.00
809.14	2670.00
809.29	2678.00
809.44	2680.00
809.58	2674.00
809.73	2671.00
809.88	2666.00
810.03	2679.00
810.18	2677.00
810.33	2694.00
810.48	2684.00
810.63	2681.00
810.78	2673.00
810.93	2678.00
811.08	2676.00
811.23	2677.00
811.38	2692.00
811.53	2723.00
811.68	2705.00
811.83	2685.00
811.97	2677.00
812.12	2683.00
812.27	2677.00
812.42	2675.00
812.57	2663.00
812.72	2667.00
812.87	2659.00
813.02	2657.00
813.17	2657.00
813.31	2668.00
813.46	2657.00
813.61	2662.00
813.76	2657.00
813.91	2657.00
814.06	2665.00
814.21	2665.00
814.35	2661.00
814.50	2667.00
814.65	2663.00
814.80	2657.00
814.95	2662.00
815.10	2661.00
815.25	2657.00
815.39	2652.00
815.54	2659.00
815.69	2644.00
815.84	2657.00
815.99	2655.00
816.13	2663.00
816.28	2650.00
816.43	2664.00
816.58	2653.00
816.73	2664.00
816.87	2656.00
817.02	2647.00
817.17	2662.00
817.32	2655.00
817.47	2660.00
817.61	2652.00
817.76	2652.00
817.91	2641.00
818.06	2641.00
818.20	2640.00
818.35	2647.00
818.50	2637.00
818.65	2644.00
818.79	2645.00
818.94	2647.00
819.09	2637.00
819.24	2639.00
819.38	2646.00
819.53	2650.00
819.68	2649.00
819.83	2636.00
819.97	2641.00
820.12	2643.00
820.27	2635.00
820.41	2643.00
820.56	2643.00
820.71	2645.00
820.86	2640.00
821.00	2659.00
821.15	2646.00
821.30	2643.00
821.44	2665.00
821.59	2647.00
821.74	2645.00
821.88	2645.00
822.03	2637.00
822.18	2652.00
822.32	2639.00
822.47	2637.00
822.62	2636.00
822.76	2640.00
822.91	2634.00
823.06	2626.00
823.20	2633.00
823.35	2648.00
823.49	2628.00
823.64	2645.00
823.79	2640.00
823.93	2631.00
824.08	2634.00
824.23	2634.00
824.37	2652.00
824.52	2640.00
824.66	2638.00
824.81	2643.00
824.96	2646.00
825.10	2639.00
825.25	2644.00
825.39	2638.00
825.54	2644.00
825.69	2639.00
825.83	2644.00
825.98	2644.00
826.12	2639.00
826.27	2643.00
826.41	2645.00
826.56	2650.00
826.71	2649.00
826.85	2643.00
827.00	2640.00
827.14	2642.00
827.29	2641.00
827.43	2638.00
827.58	2632.00
827.72	2647.00
827.87	2627.00
828.01	2630.00
828.16	2629.00
828.30	2632.00
828.45	2633.00
828.59	2631.00
828.74	2637.00
828.89	2622.00
829.03	2633.00
829.18	2629.00
829.32	2640.00
829.46	2636.00
829.61	2635.00
829.75	2639.00
829.90	2639.00
830.04	2635.00
830.19	2631.00
830.33	2628.00
830.48	2631.00
830.62	2627.00
830.77	2634.00
830.91	2646.00
831.06	2640.00
831.20	2632.00
831.35	2639.00
831.49	2635.00
831.63	2631.00
831.78	2630.00
831.92	2626.00
832.07	2641.00
832.21	2637.00
832.36	2619.00
832.50	2620.00
832.64	2631.00
832.79	2629.00
832.93	2626.00
833.08	2628.00
833.22	2631.00
833.36	2631.00
833.51	2625.00
833.65	2634.00
833.80	2637.00
833.94	2625.00
834.08	2625.00
834.23	2644.00
834.37	2632.00
834.51	2631.00
834.66	2631.00
834.80	2623.00
834.95	2628.00
835.09	2637.00
835.23	2641.00
835.38	2641.00
835.52	2641.00
835.66	2625.00
835.81	2629.00
835.95	2635.00
836.09	2638.00
836.24	2641.00
836.38	2629.00
836.52	2628.00
836.67	2633.00
836.81	2650.00
836.95	2633.00
837.10	2632.00
837.24	2627.00
837.38	2628.00
837.52	2626.00
837.67	2624.00
837.81	2618.00
837.95	2626.00
838.10	2623.00
838.24	2617.00
838.38	2625.00
838.52	2616.00
838.67	2625.00
838.81	2621.00
838.95	2622.00
839.09	2626.00
839.24	2625.00
839.38	2630.00
839.52	2630.00
839.66	2629.00
839.81	2632.00
839.95	2629.00
840.09	2636.00
840.23	2631.00
840.38	2636.00
840.52	2631.00
840.66	2637.00
840.80	2640.00
840.94	2637.00
841.09	2642.00
841.23	2638.00
841.37	2632.00
841.51	2640.00
841.65	2628.00
841.80	2627.00
841.94	2633.00
842.08	2627.00
842.22	2629.00
842.36	2634.00
842.50	2648.00
842.65	2639.00
842.79	2631.00
842.93	2629.00
843.07	2621.00
843.21	2629.00
843.35	2626.00
843.50	2619.00
843.64	2616.00
843.78	2607.00
843.92	2617.00
844.06	2618.00
844.20	2614.00
844.34	2623.00
844.48	2617.00
844.63	2627.00
844.77	2630.00
844.91	2623.00
845.05	2627.00
845.19	2623.00
845.33	2634.00
845.47	2637.00
845.61	2625.00
845.75	2632.00
845.90	2634.00
846.04	2636.00
846.18	2625.00
846.32	2619.00
846.46	2624.00
846.60	2632.00
846.74	2625.00
846.88	2620.00
847.02	2622.00
847.16	2621.00
847.30	2627.00
847.44	2623.00
847.58	2613.00
847.72	2623.00
847.86	2641.00
848.00	2625.00
848.14	2624.00
848.28	2634.00
848.42	2637.00
848.56	2629.00
848.70	2631.00
848.84	2633.00
848.99	2630.00
849.13	2630.00
849.27	2630.00
849.41	2616.00
849.54	2625.00
849.68	2620.00
849.82	2637.00
849.96	2630.00
850.10	2633.00
850.24	2629.00
850.38	2625.00
850.52	2615.00
850.66	2619.00
850.80	2617.00
850.94	2618.00
851.08	2625.00
851.22	2614.00
851.36	2625.00
851.50	2444.00
851.64	2425.00
851.78	2433.00
851.92	2436.00
852.06	2509.00
852.20	2512.00
852.34	2503.00
852.48	2514.00
852.61	2509.00
852.75	2510.00
852.89	2621.00
853.03	2615.00
853.17	2612.00
853.31	2613.00
853.45	2619.00
853.59	2619.00
853.73	2436.00
853.87	2441.00
854.00	2435.00
854.14	2429.00
